pos,corr_resp,trials.thisRepN,trials.thisTrialN,trials.thisN,trials.thisIndex,trials_2.thisRepN,trials_2.thisTrialN,trials_2.thisN,trials_2.thisIndex,fixation.started,line1.started,line2.started,line3.started,line4.started,fixation.stopped,probe.started,key_resp.started,key_resp.keys,key_resp.corr,key_resp.rt,key_resp.duration,participant,session,date,expName,psychopyVersion,frameRate,
-50,x,0,0,0,0,,,,,78.51124970900128,79.49783829200169,79.49783829200169,79.49783829200169,79.49783829200169,79.50712095900235,80.49081662500248,80.49081662500248,c,0,4.0162713329991675,None,1,001,2023-10-17_22h30.59.890,MotorSequenceLearning,2023.1.3,None,
150,v,0,1,1,1,,,,,84.51371266700153,85.50296250000247,85.50296250000247,85.50296250000247,85.50296250000247,85.51192387500123,86.50658133400066,86.50658133400066,z,0,3.9026856659984333,None,1,001,2023-10-17_22h30.59.890,MotorSequenceLearning,2023.1.3,None,
50,c,0,2,2,2,,,,,90.41556783400301,91.40831500000058,91.40831500000058,91.40831500000058,91.40831500000058,91.41801975000271,92.40666062500168,92.40666062500168,x,0,5.010499374999199,None,1,001,2023-10-17_22h30.59.890,MotorSequenceLearning,2023.1.3,None,
-150,z,0,3,3,3,,,,,97.42355604200202,98.41816945900064,98.41816945900064,98.41816945900064,98.41816945900064,98.41816945900064,99.4159502500006,99.4159502500006,v,0,4.243534833000012,None,1,001,2023-10-17_22h30.59.890,MotorSequenceLearning,2023.1.3,None,
-50,x,1,0,4,0,,,,,103.66566145900288,104.6577782500026,104.6577782500026,104.6577782500026,104.6577782500026,104.6577782500026,105.65690579200236,105.65690579200236,x,1,45.73656016699897,None,1,001,2023-10-17_22h30.59.890,MotorSequenceLearning,2023.1.3,None,
150,v,1,1,5,1,,,,,151.4002519170026,152.3928452500004,152.3928452500004,152.3928452500004,152.3928452500004,152.3928452500004,153.39123070900314,153.39123070900314,v,1,5.459502916997735,None,1,001,2023-10-17_22h30.59.890,MotorSequenceLearning,2023.1.3,None,
50,c,1,2,6,2,,,,,158.85859891700238,159.85342929200124,159.85342929200124,159.85342929200124,159.85342929200124,159.85342929200124,160.8505332090026,160.8505332090026,c,1,8.926612999999634,None,1,001,2023-10-17_22h30.59.890,MotorSequenceLearning,2023.1.3,None,
-150,z,1,3,7,3,,,,,169.78326379200007,170.77625670900306,170.77625670900306,170.77625670900306,170.77625670900306,170.77625670900306,171.77558041700104,171.77558041700104,c,0,0.7692607500030135,None,1,001,2023-10-17_22h30.59.890,MotorSequenceLearning,2023.1.3,None,
-50,x,2,0,8,0,,,,,172.55071829200097,173.55960725000114,173.55960725000114,173.55960725000114,173.55960725000114,173.5697361670027,174.54152479200275,174.54152479200275,x,1,1.3855305420001969,None,1,001,2023-10-17_22h30.59.890,MotorSequenceLearning,2023.1.3,None,
150,v,2,1,9,1,,,,,175.9338388340002,176.94256979200145,176.94256979200145,176.94256979200145,176.94256979200145,176.95967383400057,177.92478100000153,177.92478100000153,v,1,1.7930549579978106,None,1,001,2023-10-17_22h30.59.890,MotorSequenceLearning,2023.1.3,None,
50,c,2,2,10,2,,,,,179.7256678340018,180.7200980000016,180.7200980000016,180.7200980000016,180.7200980000016,180.7200980000016,181.71759845900306,181.71759845900306,c,1,1.9097019170003477,None,1,001,2023-10-17_22h30.59.890,MotorSequenceLearning,2023.1.3,None,
-150,z,2,3,11,3,,,,,183.6338437500017,184.64285954200022,184.64285954200022,184.64285954200022,184.64285954200022,184.6597440000005,185.62513575000048,185.62513575000048,z,1,0.8858107920023031,None,1,001,2023-10-17_22h30.59.890,MotorSequenceLearning,2023.1.3,None,
-50,x,3,0,12,0,,,,,186.51771504200224,187.51178054200136,187.51178054200136,187.51178054200136,187.51178054200136,187.5264854590023,188.50854933400115,188.50854933400115,x,1,0.5765763750023325,None,1,001,2023-10-17_22h30.59.890,MotorSequenceLearning,2023.1.3,None,
150,v,3,1,13,1,,,,,189.09175191699978,190.08675004200268,190.08675004200268,190.08675004200268,190.08675004200268,190.08675004200268,191.08427029200175,191.08427029200175,v,1,0.9179007919992728,None,1,001,2023-10-17_22h30.59.890,MotorSequenceLearning,2023.1.3,None,
50,c,3,2,14,2,,,,,192.00847216700276,193.003740250002,193.003740250002,193.003740250002,193.003740250002,193.003740250002,194.0009865840002,194.0009865840002,c,1,1.4011908749998838,None,1,001,2023-10-17_22h30.59.890,MotorSequenceLearning,2023.1.3,None,
-150,z,3,3,15,3,,,,,195.40843574999963,196.40320412500296,196.40320412500296,196.40320412500296,196.40320412500296,196.40320412500296,197.4011507920004,197.4011507920004,z,1,0.7669817919995694,None,1,001,2023-10-17_22h30.59.890,MotorSequenceLearning,2023.1.3,None,
-50,x,4,0,16,0,,,,,198.1759270420007,199.17038187500293,199.17038187500293,199.17038187500293,199.17038187500293,199.17038187500293,200.16786470900115,200.16786470900115,x,1,0.6432842909998726,None,1,001,2023-10-17_22h30.59.890,MotorSequenceLearning,2023.1.3,None,
150,v,4,1,17,1,,,,,200.81791112500287,201.81158537500232,201.81158537500232,201.81158537500232,201.81158537500232,201.82689025000218,202.80876508400252,202.80876508400252,v,1,0.5264666249968286,None,1,001,2023-10-17_22h30.59.890,MotorSequenceLearning,2023.1.3,None,
50,c,4,2,18,2,,,,,203.34232620900002,204.3365858340003,204.3365858340003,204.3365858340003,204.3365858340003,204.3365858340003,205.3345391670009,205.3345391670009,c,1,0.6584877499990398,None,1,001,2023-10-17_22h30.59.890,MotorSequenceLearning,2023.1.3,None,
-150,z,4,3,19,3,,,,,206.00064187500175,206.9877785839999,206.9877785839999,206.9877785839999,206.9877785839999,206.9965905420031,207.99185041700184,207.99185041700184,z,1,0.5433442499997909,None,1,001,2023-10-17_22h30.59.890,MotorSequenceLearning,2023.1.3,None,
-50,x,5,0,20,0,,,,,208.54289425000024,209.53682308400312,209.53682308400312,209.53682308400312,209.53682308400312,209.53682308400312,210.53496737500245,210.53496737500245,x,1,0.5248091249995923,None,1,001,2023-10-17_22h30.59.890,MotorSequenceLearning,2023.1.3,None,
150,v,5,1,21,1,,,,,211.06691612500072,212.05477504200098,212.05477504200098,212.05477504200098,212.05477504200098,212.0635565420016,213.05169358400235,213.05169358400235,v,1,0.35836845799713046,None,1,001,2023-10-17_22h30.59.890,MotorSequenceLearning,2023.1.3,None,
50,c,5,2,22,2,,,,,213.41732716700062,214.4049971250024,214.4049971250024,214.4049971250024,214.4049971250024,214.41388562500288,215.40875487500307,215.40875487500307,c,1,0.8433849999964877,None,1,001,2023-10-17_22h30.59.890,MotorSequenceLearning,2023.1.3,None,
-150,z,5,3,23,3,,,,,216.25894766700003,217.25400812500084,217.25400812500084,217.25400812500084,217.25400812500084,217.25400812500084,218.2513627920016,218.2513627920016,z,1,0.7005774999997811,None,1,001,2023-10-17_22h30.59.890,MotorSequenceLearning,2023.1.3,None,
-50,x,6,0,24,0,,,,,218.9588742090018,219.95381491700027,219.95381491700027,219.95381491700027,219.95381491700027,219.95381491700027,220.95154791700043,220.95154791700043,x,1,0.5251895829969726,None,1,001,2023-10-17_22h30.59.890,MotorSequenceLearning,2023.1.3,None,
150,v,6,1,25,1,,,,,221.4840240420017,222.47132058400166,222.47132058400166,222.47132058400166,222.47132058400166,222.48014920900096,223.4764114589998,223.4764114589998,v,1,0.8337954170019657,None,1,001,2023-10-17_22h30.59.890,MotorSequenceLearning,2023.1.3,None,
50,c,6,2,26,2,,,,,224.31735945900073,225.30524366700047,225.30524366700047,225.30524366700047,225.30524366700047,225.3138487920005,226.3093675420023,226.3093675420023,c,1,0.6352013750001788,None,1,001,2023-10-17_22h30.59.890,MotorSequenceLearning,2023.1.3,None,
-150,z,6,3,27,3,,,,,226.9502315000027,227.94331650000095,227.94331650000095,227.94331650000095,227.94331650000095,227.94331650000095,228.94322683400242,228.94322683400242,z,1,0.5927062080008909,None,1,001,2023-10-17_22h30.59.890,MotorSequenceLearning,2023.1.3,None,
-50,x,7,0,28,0,,,,,229.5423284589997,230.5370334170002,230.5370334170002,230.5370334170002,230.5370334170002,230.5370334170002,231.5349732499999,231.5349732499999,x,1,0.4248195830004988,None,1,001,2023-10-17_22h30.59.890,MotorSequenceLearning,2023.1.3,None,
150,v,7,1,29,1,,,,,231.96692262500073,232.95993162500235,232.95993162500235,232.95993162500235,232.95993162500235,232.95993162500235,233.95993858400107,233.95993858400107,v,1,0.48491029200158664,None,1,001,2023-10-17_22h30.59.890,MotorSequenceLearning,2023.1.3,None,
50,c,7,2,30,2,,,,,234.45134166700154,235.44426287500028,235.44426287500028,235.44426287500028,235.44426287500028,235.44426287500028,236.44247475000157,236.44247475000157,c,1,0.6937949590028438,None,1,001,2023-10-17_22h30.59.890,MotorSequenceLearning,2023.1.3,None,
-150,z,7,3,31,3,,,,,237.14321425000162,238.1377395840027,238.1377395840027,238.1377395840027,238.1377395840027,238.1377395840027,239.13520791700284,239.13520791700284,z,1,0.4433273750000808,None,1,001,2023-10-17_22h30.59.890,MotorSequenceLearning,2023.1.3,None,
-50,x,8,0,32,0,,,,,239.58556729200063,240.59363545900123,240.59363545900123,240.59363545900123,240.59363545900123,240.61083666700142,241.57614375000048,241.57614375000048,x,1,0.743283457999496,None,1,001,2023-10-17_22h30.59.890,MotorSequenceLearning,2023.1.3,None,
150,v,8,1,33,1,,,,,242.32599262500298,243.32089283400273,243.32089283400273,243.32089283400273,243.32089283400273,243.32089283400273,244.31861479200234,244.31861479200234,v,1,0.491109458002029,None,1,001,2023-10-17_22h30.59.890,MotorSequenceLearning,2023.1.3,None,
50,c,8,2,34,2,,,,,244.8169680840001,245.8062332920017,245.8062332920017,245.8062332920017,245.8062332920017,245.81556329200248,246.80193254200276,246.80193254200276,v,0,0.48440883299917914,None,1,001,2023-10-17_22h30.59.890,MotorSequenceLearning,2023.1.3,None,
-150,z,8,3,35,3,,,,,247.29333716700057,248.28795304199957,248.28795304199957,248.28795304199957,248.28795304199957,248.28795304199957,249.28533874999994,249.28533874999994,z,1,0.5264269999970566,None,1,001,2023-10-17_22h30.59.890,MotorSequenceLearning,2023.1.3,None,
-50,x,9,0,36,0,,,,,249.81862066699978,250.8110997920012,250.8110997920012,250.8110997920012,250.8110997920012,250.8207121250016,251.8094079170005,251.8094079170005,x,1,0.4936851249985921,None,1,001,2023-10-17_22h30.59.890,MotorSequenceLearning,2023.1.3,None,
150,v,9,1,37,1,,,,,252.30956491700272,253.30454587500208,253.30454587500208,253.30454587500208,253.30454587500208,253.30454587500208,254.30263570900206,254.30263570900206,v,1,0.9906181670012302,None,1,001,2023-10-17_22h30.59.890,MotorSequenceLearning,2023.1.3,None,
50,c,9,2,38,2,,,,,255.30038179199983,256.2939138340007,256.2939138340007,256.2939138340007,256.2939138340007,256.2939138340007,257.29370904200186,257.29370904200186,c,1,0.6257925409991003,None,1,001,2023-10-17_22h30.59.890,MotorSequenceLearning,2023.1.3,None,
-150,z,9,3,39,3,,,,,257.92716020900116,258.921719209,258.921719209,258.921719209,258.921719209,258.921719209,259.91877695900257,259.91877695900257,z,1,0.6345510840001225,None,1,001,2023-10-17_22h30.59.890,MotorSequenceLearning,2023.1.3,None,
-50,x,10,0,40,0,,,,,260.5601436249999,261.5548027500008,261.5548027500008,261.5548027500008,261.5548027500008,261.5548027500008,262.55211483400126,262.55211483400126,x,1,0.38460624999788706,None,1,001,2023-10-17_22h30.59.890,MotorSequenceLearning,2023.1.3,None,
150,v,10,1,41,1,,,,,262.94291404199976,263.9381915840022,263.9381915840022,263.9381915840022,263.9381915840022,263.9381915840022,264.9358776670015,264.9358776670015,v,1,0.5760707080007705,None,1,001,2023-10-17_22h30.59.890,MotorSequenceLearning,2023.1.3,None,
50,c,10,2,42,2,,,,,265.51815474999967,266.5104599590013,266.5104599590013,266.5104599590013,266.5104599590013,266.5104599590013,267.50959525000144,267.50959525000144,c,1,0.5929184999986319,None,1,001,2023-10-17_22h30.59.890,MotorSequenceLearning,2023.1.3,None,
-150,z,10,3,43,3,,,,,268.1104055420001,269.10510470900044,269.10510470900044,269.10510470900044,269.10510470900044,269.10510470900044,270.102588167003,270.102588167003,z,1,0.5095184999991034,None,1,001,2023-10-17_22h30.59.890,MotorSequenceLearning,2023.1.3,None,
-50,x,11,0,44,0,,,,,270.61862649999966,271.611604042002,271.611604042002,271.611604042002,271.611604042002,271.611604042002,272.610706792002,272.610706792002,x,1,0.3923075000020617,None,1,001,2023-10-17_22h30.59.890,MotorSequenceLearning,2023.1.3,None,
150,v,11,1,45,1,,,,,273.01065579200076,274.00506000000314,274.00506000000314,274.00506000000314,274.00506000000314,274.00506000000314,275.0024718340028,275.0024718340028,v,1,0.4668977920009638,None,1,001,2023-10-17_22h30.59.890,MotorSequenceLearning,2023.1.3,None,
50,c,11,2,46,2,,,,,275.47715616700225,276.4717165840011,276.4717165840011,276.4717165840011,276.4717165840011,276.4717165840011,277.4690151670002,277.4690151670002,c,1,0.5585103749981499,None,1,001,2023-10-17_22h30.59.890,MotorSequenceLearning,2023.1.3,None,
-150,z,11,3,47,3,,,,,278.0348334590017,279.02250000000276,279.02250000000276,279.02250000000276,279.02250000000276,279.03127520900307,280.02748183400035,280.02748183400035,z,1,0.4182517499975802,None,1,001,2023-10-17_22h30.59.890,MotorSequenceLearning,2023.1.3,None,
-50,x,12,0,48,0,,,,,280.45283612500134,281.44619525000235,281.44619525000235,281.44619525000235,281.44619525000235,281.4613706670025,282.4433600420016,282.4433600420016,x,1,0.6270797079996555,None,1,001,2023-10-17_22h30.59.890,MotorSequenceLearning,2023.1.3,None,
150,v,12,1,49,1,,,,,283.0770888340012,284.0721271670009,284.0721271670009,284.0721271670009,284.0721271670009,284.0721271670009,285.069115125003,285.069115125003,v,1,1.0672156670007098,None,1,001,2023-10-17_22h30.59.890,MotorSequenceLearning,2023.1.3,None,
50,c,12,2,50,2,,,,,286.14323074999993,287.1383276250017,287.1383276250017,287.1383276250017,287.1383276250017,287.1383276250017,288.1362718750024,288.1362718750024,c,1,0.6430210830003489,None,1,001,2023-10-17_22h30.59.890,MotorSequenceLearning,2023.1.3,None,
-150,z,12,3,51,3,,,,,288.7859859170021,289.7799562500004,289.7799562500004,289.7799562500004,289.7799562500004,289.7799562500004,290.77697100000296,290.77697100000296,z,1,0.6356696250004461,None,1,001,2023-10-17_22h30.59.890,MotorSequenceLearning,2023.1.3,None,
-50,x,13,0,52,0,,,,,291.41954675000306,292.4134031249996,292.4134031249996,292.4134031249996,292.4134031249996,292.428275125003,293.41082862500116,293.41082862500116,x,1,0.4998396250011865,None,1,001,2023-10-17_22h30.59.890,MotorSequenceLearning,2023.1.3,None,
150,v,13,1,53,1,,,,,293.91769616700185,294.9057699170007,294.9057699170007,294.9057699170007,294.9057699170007,294.91481395899973,295.9027522920005,295.9027522920005,v,1,0.6263749999998254,None,1,001,2023-10-17_22h30.59.890,MotorSequenceLearning,2023.1.3,None,
50,c,13,2,54,2,,,,,296.53510904200084,297.5280424170014,297.5280424170014,297.5280424170014,297.5280424170014,297.5280424170014,298.52673820900236,298.52673820900236,c,1,0.5607571250002366,None,1,001,2023-10-17_22h30.59.890,MotorSequenceLearning,2023.1.3,None,
-150,z,13,3,55,3,,,,,299.09407312500116,300.0888741250019,300.0888741250019,300.0888741250019,300.0888741250019,300.0888741250019,301.0860918340004,301.0860918340004,z,1,0.6751899170012621,None,1,001,2023-10-17_22h30.59.890,MotorSequenceLearning,2023.1.3,None,
-50,x,14,0,56,0,,,,,301.76856254200175,302.75589341700106,302.75589341700106,302.75589341700106,302.75589341700106,302.76467020900236,303.7530462499999,303.7530462499999,x,1,0.6505329589999747,None,1,001,2023-10-17_22h30.59.890,MotorSequenceLearning,2023.1.3,None,
150,v,14,1,57,1,,,,,304.4111628749997,305.4057045840018,305.4057045840018,305.4057045840018,305.4057045840018,305.4057045840018,306.40288975000294,306.40288975000294,v,1,0.8666366249999555,None,1,001,2023-10-17_22h30.59.890,MotorSequenceLearning,2023.1.3,None,
50,c,14,2,58,2,,,,,307.27785575000235,308.2715820420017,308.2715820420017,308.2715820420017,308.2715820420017,308.2715820420017,309.26972270900296,309.26972270900296,x,0,0.7670526250003604,None,1,001,2023-10-17_22h30.59.890,MotorSequenceLearning,2023.1.3,None,
-150,z,14,3,59,3,,,,,310.0447495840017,311.03876624999975,311.03876624999975,311.03876624999975,311.03876624999975,311.03876624999975,312.0363539589998,312.0363539589998,z,1,0.7583054580027238,None,1,001,2023-10-17_22h30.59.890,MotorSequenceLearning,2023.1.3,None,
-50,x,15,0,60,0,,,,,312.80188141700273,313.7904904999996,313.7904904999996,313.7904904999996,313.7904904999996,313.7994373750007,314.78745079200235,314.78745079200235,x,1,0.5166621669995948,None,1,001,2023-10-17_22h30.59.890,MotorSequenceLearning,2023.1.3,None,
150,v,15,1,61,1,,,,,315.3107126249997,316.30604462500196,316.30604462500196,316.30604462500196,316.30604462500196,316.30604462500196,317.30347895900195,317.30347895900195,v,1,0.7247213339978771,None,1,001,2023-10-17_22h30.59.890,MotorSequenceLearning,2023.1.3,None,
50,c,15,2,62,2,,,,,318.03535399999964,319.02328300000227,319.02328300000227,319.02328300000227,319.02328300000227,319.0319675000028,320.0271945000022,320.0271945000022,c,1,0.5594965829986904,None,1,001,2023-10-17_22h30.59.890,MotorSequenceLearning,2023.1.3,None,
-150,z,15,3,63,3,,,,,320.5945734590023,321.58862833400053,321.58862833400053,321.58862833400053,321.58862833400053,321.58862833400053,322.5865025000021,322.5865025000021,z,1,0.4516073749982752,None,1,001,2023-10-17_22h30.59.890,MotorSequenceLearning,2023.1.3,None,
-50,x,16,0,64,0,,,,,323.04443245900256,324.0387878340007,324.0387878340007,324.0387878340007,324.0387878340007,324.0387878340007,325.0365625000013,325.0365625000013,x,1,0.3176565419998951,None,1,001,2023-10-17_22h30.59.890,MotorSequenceLearning,2023.1.3,None,
150,v,16,1,65,1,,,,,325.36097687500296,326.3558355839996,326.3558355839996,326.3558355839996,326.3558355839996,326.3558355839996,327.3532668750013,327.3532668750013,v,1,0.600323082999239,None,1,001,2023-10-17_22h30.59.890,MotorSequenceLearning,2023.1.3,None,
50,c,16,2,66,2,,,,,327.9616527500002,328.95591945900014,328.95591945900014,328.95591945900014,328.95591945900014,328.95591945900014,329.953583292001,329.953583292001,c,1,0.6339882909996959,None,1,001,2023-10-17_22h30.59.890,MotorSequenceLearning,2023.1.3,None,
-150,z,16,3,67,3,,,,,330.5941744590018,331.5905310840026,331.5905310840026,331.5905310840026,331.5905310840026,331.5905310840026,332.5869962500001,332.5869962500001,z,1,0.5761791249969974,None,1,001,2023-10-17_22h30.59.890,MotorSequenceLearning,2023.1.3,None,
-50,x,17,0,68,0,,,,,333.16960791699967,334.1624072500017,334.1624072500017,334.1624072500017,334.1624072500017,334.1719741250017,335.1617012500028,335.1617012500028,x,1,0.525367374997586,None,1,001,2023-10-17_22h30.59.890,MotorSequenceLearning,2023.1.3,None,
150,v,17,1,69,1,,,,,335.69506220900075,336.68955595900115,336.68955595900115,336.68955595900115,336.68955595900115,336.68955595900115,337.68714720900243,337.68714720900243,v,1,0.6497660829991219,None,1,001,2023-10-17_22h30.59.890,MotorSequenceLearning,2023.1.3,None,
50,c,17,2,70,2,,,,,338.3448378339999,339.34046879200105,339.34046879200105,339.34046879200105,339.34046879200105,339.34046879200105,340.33748087500135,340.33748087500135,c,1,0.6164702089990897,None,1,001,2023-10-17_22h30.59.890,MotorSequenceLearning,2023.1.3,None,
-150,z,17,3,71,3,,,,,340.96176104200276,341.9562665420017,341.9562665420017,341.9562665420017,341.9562665420017,341.9562665420017,342.953432125003,342.953432125003,z,1,0.6342532079979719,None,1,001,2023-10-17_22h30.59.890,MotorSequenceLearning,2023.1.3,None,
-50,x,18,0,72,0,,,,,343.5940798750016,344.58962783400057,344.58962783400057,344.58962783400057,344.58962783400057,344.58962783400057,345.58688050000274,345.58688050000274,x,1,0.5181379160021606,None,1,001,2023-10-17_22h30.59.890,MotorSequenceLearning,2023.1.3,None,
150,v,18,1,73,1,,,,,346.11158479200094,347.1064025420019,347.1064025420019,347.1064025420019,347.1064025420019,347.1064025420019,348.1036233340019,348.1036233340019,v,1,0.5502431249988149,None,1,001,2023-10-17_22h30.59.890,MotorSequenceLearning,2023.1.3,None,
50,c,18,2,74,2,,,,,348.6619295420023,349.65625670900044,349.65625670900044,349.65625670900044,349.65625670900044,349.65625670900044,350.6536245000025,350.6536245000025,c,1,0.5841529170029389,None,1,001,2023-10-17_22h30.59.890,MotorSequenceLearning,2023.1.3,None,
-150,z,18,3,75,3,,,,,351.24426716699963,352.239134792002,352.239134792002,352.239134792002,352.239134792002,352.239134792002,353.2372949590026,353.2372949590026,z,1,0.43415654199998244,None,1,001,2023-10-17_22h30.59.890,MotorSequenceLearning,2023.1.3,None,
-50,x,19,0,76,0,,,,,353.6784491670005,354.67341783400116,354.67341783400116,354.67341783400116,354.67341783400116,354.67341783400116,355.67036920900136,355.67036920900136,x,1,0.4099798750030459,None,1,001,2023-10-17_22h30.59.890,MotorSequenceLearning,2023.1.3,None,
150,v,19,1,77,1,,,,,356.0873040000006,357.0809196670016,357.0809196670016,357.0809196670016,357.0809196670016,357.0809196670016,358.07787329200073,358.07787329200073,v,1,0.5176214579987573,None,1,001,2023-10-17_22h30.59.890,MotorSequenceLearning,2023.1.3,None,
50,c,19,2,78,2,,,,,358.603012167001,359.59177162500055,359.59177162500055,359.59177162500055,359.59177162500055,359.60117008400266,360.5946401250003,360.5946401250003,c,1,0.543232749998424,None,1,001,2023-10-17_22h30.59.890,MotorSequenceLearning,2023.1.3,None,
-150,z,19,3,79,3,,,,,361.14455754200026,362.14005441700283,362.14005441700283,362.14005441700283,362.14005441700283,362.14005441700283,363.1370759590027,363.1370759590027,z,1,0.3932652080002299,None,1,001,2023-10-17_22h30.59.890,MotorSequenceLearning,2023.1.3,None,
-50,x,20,0,80,0,,,,,363.5370657090025,364.54564408400256,364.54564408400256,364.54564408400256,364.54564408400256,364.54564408400256,365.5289177090017,365.5289177090017,x,1,0.3330962500003807,None,1,001,2023-10-17_22h30.59.890,MotorSequenceLearning,2023.1.3,None,
150,v,20,1,81,1,,,,,365.8689678340015,366.8568301250016,366.8568301250016,366.8568301250016,366.8568301250016,366.86555933400086,367.85499166700174,367.85499166700174,v,1,0.5326418330005254,None,1,001,2023-10-17_22h30.59.890,MotorSequenceLearning,2023.1.3,None,
50,c,20,2,82,2,,,,,368.3953370840027,369.3898437090029,369.3898437090029,369.3898437090029,369.3898437090029,369.3898437090029,370.3875472920008,370.3875472920008,c,1,0.4998053750023246,None,1,001,2023-10-17_22h30.59.890,MotorSequenceLearning,2023.1.3,None,
-150,z,20,3,83,3,,,,,370.89537679200293,371.88991241700205,371.88991241700205,371.88991241700205,371.88991241700205,371.88991241700205,372.8872813750022,372.8872813750022,z,1,0.3919749589986168,None,1,001,2023-10-17_22h30.59.890,MotorSequenceLearning,2023.1.3,None,
-50,x,21,0,84,0,,,,,373.28649962500276,374.2746912090006,374.2746912090006,374.2746912090006,374.2746912090006,374.2840649589998,375.2780305840024,375.2780305840024,x,1,0.4271249999983411,None,1,001,2023-10-17_22h30.59.890,MotorSequenceLearning,2023.1.3,None,
150,v,21,1,85,1,,,,,375.7118646670024,376.70624041700285,376.70624041700285,376.70624041700285,376.70624041700285,376.70624041700285,377.70432845899995,377.70432845899995,v,1,0.500157708000188,None,1,001,2023-10-17_22h30.59.890,MotorSequenceLearning,2023.1.3,None,
50,c,21,2,86,2,,,,,378.2121450000013,379.20677558399984,379.20677558399984,379.20677558399984,379.20677558399984,379.20677558399984,380.2043016250027,380.2043016250027,c,1,0.5429065829994215,None,1,001,2023-10-17_22h30.59.890,MotorSequenceLearning,2023.1.3,None,
-150,z,21,3,87,3,,,,,380.7540629169998,381.7460067920001,381.7460067920001,381.7460067920001,381.7460067920001,381.75563624999995,382.74574291700264,382.74574291700264,z,1,0.39247029200123507,None,1,001,2023-10-17_22h30.59.890,MotorSequenceLearning,2023.1.3,None,
-50,x,22,0,88,0,,,,,383.1456350840017,384.13966512499974,384.13966512499974,384.13966512499974,384.13966512499974,384.13966512499974,385.137848792001,385.137848792001,x,1,0.3095604589980212,None,1,001,2023-10-17_22h30.59.890,MotorSequenceLearning,2023.1.3,None,
150,v,22,1,89,1,,,,,385.4542155420022,386.44677912500265,386.44677912500265,386.44677912500265,386.44677912500265,386.45641966699986,387.4448679590023,387.4448679590023,v,1,0.4352937919975375,None,1,001,2023-10-17_22h30.59.890,MotorSequenceLearning,2023.1.3,None,
50,c,22,2,90,2,,,,,387.8868944170026,388.87996116700015,388.87996116700015,388.87996116700015,388.87996116700015,388.87996116700015,389.8783825000028,389.8783825000028,c,1,0.5352325839994592,None,1,001,2023-10-17_22h30.59.890,MotorSequenceLearning,2023.1.3,None,
-150,z,22,3,91,3,,,,,390.4202924170022,391.4293982920026,391.4293982920026,391.4293982920026,391.4293982920026,391.4464907500005,392.4117786250026,392.4117786250026,z,1,0.3761551249990589,None,1,001,2023-10-17_22h30.59.890,MotorSequenceLearning,2023.1.3,None,
-50,x,23,0,92,0,,,,,392.795988959002,393.79013512500023,393.79013512500023,393.79013512500023,393.79013512500023,393.79013512500023,394.78768929200305,394.78768929200305,x,1,0.4174617499993474,None,1,001,2023-10-17_22h30.59.890,MotorSequenceLearning,2023.1.3,None,
150,v,23,1,93,1,,,,,395.21195550000266,396.2065157090001,396.2065157090001,396.2065157090001,396.2065157090001,396.2065157090001,397.2043510420008,397.2043510420008,v,1,0.6749089580007421,None,1,001,2023-10-17_22h30.59.890,MotorSequenceLearning,2023.1.3,None,
50,c,23,2,94,2,,,,,397.88612862500304,398.8742080000011,398.8742080000011,398.8742080000011,398.8742080000011,398.8829563340005,399.87111358400216,399.87111358400216,c,1,0.5002231250000477,None,1,001,2023-10-17_22h30.59.890,MotorSequenceLearning,2023.1.3,None,
-150,z,23,3,95,3,,,,,400.379543250001,401.3734515840006,401.3734515840006,401.3734515840006,401.3734515840006,401.3734515840006,402.3715955840016,402.3715955840016,z,1,0.45064587500019115,None,1,001,2023-10-17_22h30.59.890,MotorSequenceLearning,2023.1.3,None,
-50,x,24,0,96,0,,,,,402.82859550000285,403.8234747500028,403.8234747500028,403.8234747500028,403.8234747500028,403.8234747500028,404.8215537920005,404.8215537920005,x,1,0.4243898339991574,None,1,001,2023-10-17_22h30.59.890,MotorSequenceLearning,2023.1.3,None,
150,v,24,1,97,1,,,,,405.25307620900276,406.24146545900294,406.24146545900294,406.24146545900294,406.24146545900294,406.25020462500106,407.2378347920021,407.2378347920021,v,1,0.517519999997603,None,1,001,2023-10-17_22h30.59.890,MotorSequenceLearning,2023.1.3,None,
50,c,24,2,98,2,,,,,407.76234058400223,408.75733645900254,408.75733645900254,408.75733645900254,408.75733645900254,408.75733645900254,409.75483499999973,409.75483499999973,c,1,0.5678519159991993,None,1,001,2023-10-17_22h30.59.890,MotorSequenceLearning,2023.1.3,None,
-150,z,24,3,99,3,,,,,410.32897454200065,411.32361429199955,411.32361429199955,411.32361429199955,411.32361429199955,411.32361429199955,412.3212069170004,412.3212069170004,z,1,0.5004999170014344,None,1,001,2023-10-17_22h30.59.890,MotorSequenceLearning,2023.1.3,None,
-50,x,25,0,100,0,,,,,412.82868441699975,413.82405966700026,413.82405966700026,413.82405966700026,413.82405966700026,413.82405966700026,414.82131066700094,414.82131066700094,x,1,0.4003381670008821,None,1,001,2023-10-17_22h30.59.890,MotorSequenceLearning,2023.1.3,None,
150,v,25,1,101,1,,,,,415.2294876670021,416.2233350839997,416.2233350839997,416.2233350839997,416.2233350839997,416.2233350839997,417.22130087500045,417.22130087500045,v,1,0.5510071659991809,None,1,001,2023-10-17_22h30.59.890,MotorSequenceLearning,2023.1.3,None,
50,c,25,2,102,2,,,,,417.7796715000004,418.7739829170023,418.7739829170023,418.7739829170023,418.7739829170023,418.7739829170023,419.7721542500003,419.7721542500003,c,1,0.8999620840004354,None,1,001,2023-10-17_22h30.59.890,MotorSequenceLearning,2023.1.3,None,
-150,z,25,3,103,3,,,,,420.67864691700015,421.6733444590027,421.6733444590027,421.6733444590027,421.6733444590027,421.6733444590027,422.67156216700096,422.67156216700096,z,1,0.45919129199683084,None,1,001,2023-10-17_22h30.59.890,MotorSequenceLearning,2023.1.3,None,
-50,x,26,0,104,0,,,,,423.13638820900087,424.12991558400245,424.12991558400245,424.12991558400245,424.12991558400245,424.12991558400245,425.1297980420022,425.1297980420022,x,1,0.4017048329988029,None,1,001,2023-10-17_22h30.59.890,MotorSequenceLearning,2023.1.3,None,
150,v,26,1,105,1,,,,,425.5382652920016,426.53173591700033,426.53173591700033,426.53173591700033,426.53173591700033,426.5471113750027,427.5288228339996,427.5288228339996,v,1,0.5938967920010327,None,1,001,2023-10-17_22h30.59.890,MotorSequenceLearning,2023.1.3,None,
50,c,26,2,106,2,,,,,428.1291008340013,429.1246979999996,429.1246979999996,429.1246979999996,429.1246979999996,429.1246979999996,430.12203729199973,430.12203729199973,c,1,0.5241270830010762,None,1,001,2023-10-17_22h30.59.890,MotorSequenceLearning,2023.1.3,None,
-150,z,26,3,107,3,,,,,430.6534034590004,431.64158487500026,431.64158487500026,431.64158487500026,431.64158487500026,431.65044020900314,432.63823779200175,432.63823779200175,z,1,0.4834868340003595,None,1,001,2023-10-17_22h30.59.890,MotorSequenceLearning,2023.1.3,None,
-50,x,27,0,108,0,,,,,433.1299745420001,434.1235938339996,434.1235938339996,434.1235938339996,434.1235938339996,434.1235938339996,435.12166283400074,435.12166283400074,x,1,0.38485087499793735,None,1,001,2023-10-17_22h30.59.890,MotorSequenceLearning,2023.1.3,None,
150,v,27,1,109,1,,,,,435.5128151250028,436.5071903750031,436.5071903750031,436.5071903750031,436.5071903750031,436.5071903750031,437.50508875000014,437.50508875000014,v,1,0.4913973750008154,None,1,001,2023-10-17_22h30.59.890,MotorSequenceLearning,2023.1.3,None,
50,c,27,2,110,2,,,,,438.003528250003,438.99206991699975,438.99206991699975,438.99206991699975,438.99206991699975,439.0008329170014,439.98846950000006,439.98846950000006,c,1,0.524771458000032,None,1,001,2023-10-17_22h30.59.890,MotorSequenceLearning,2023.1.3,None,
-150,z,27,3,111,3,,,,,440.52060483400055,441.5086250420027,441.5086250420027,441.5086250420027,441.5086250420027,441.51739629200165,442.5051213750012,442.5051213750012,z,1,0.3765218750013446,None,1,001,2023-10-17_22h30.59.890,MotorSequenceLearning,2023.1.3,None,
-50,x,28,0,112,0,,,,,442.88842745900183,443.88271975000316,443.88271975000316,443.88271975000316,443.88271975000316,443.8973303340026,444.87951650000105,444.87951650000105,x,1,0.42629858299915213,None,1,001,2023-10-17_22h30.59.890,MotorSequenceLearning,2023.1.3,None,
150,v,28,1,113,1,,,,,445.3127212920008,446.30788079200283,446.30788079200283,446.30788079200283,446.30788079200283,446.30788079200283,447.305791625,447.305791625,v,1,0.6004678339995735,None,1,001,2023-10-17_22h30.59.890,MotorSequenceLearning,2023.1.3,None,
50,c,28,2,114,2,,,,,447.91305600000123,448.9088228340006,448.9088228340006,448.9088228340006,448.9088228340006,448.9088228340006,449.9052168750022,449.9052168750022,c,1,0.8675135420016886,None,1,001,2023-10-17_22h30.59.890,MotorSequenceLearning,2023.1.3,None,
-150,z,28,3,115,3,,,,,450.77941154200016,451.77448491700125,451.77448491700125,451.77448491700125,451.77448491700125,451.77448491700125,452.7722229170031,452.7722229170031,z,1,0.7337059999990743,None,1,001,2023-10-17_22h30.59.890,MotorSequenceLearning,2023.1.3,None,
-50,x,29,0,116,0,,,,,453.51257883400103,454.50800804200117,454.50800804200117,454.50800804200117,454.50800804200117,454.50800804200117,455.505266209002,455.505266209002,x,1,0.3841681249978137,None,1,001,2023-10-17_22h30.59.890,MotorSequenceLearning,2023.1.3,None,
150,v,29,1,117,1,,,,,455.8960701249998,456.8912157090017,456.8912157090017,456.8912157090017,456.8912157090017,456.8912157090017,457.8888716250003,457.8888716250003,v,1,0.5175776249998307,None,1,001,2023-10-17_22h30.59.890,MotorSequenceLearning,2023.1.3,None,
50,c,29,2,118,2,,,,,458.41339929199967,459.4071726250004,459.4071726250004,459.4071726250004,459.4071726250004,459.4071726250004,460.406150625,460.406150625,c,1,0.5657539160019951,None,1,001,2023-10-17_22h30.59.890,MotorSequenceLearning,2023.1.3,None,
-150,z,29,3,119,3,,,,,460.9801263750014,461.97475520900116,461.97475520900116,461.97475520900116,461.97475520900116,461.97475520900116,462.9721816670026,462.9721816670026,z,1,0.5168557919969317,None,1,001,2023-10-17_22h30.59.890,MotorSequenceLearning,2023.1.3,None,
-50,x,30,0,120,0,,,,,463.49711058400135,464.49113879200013,464.49113879200013,464.49113879200013,464.49113879200013,464.49113879200013,465.4886424590004,465.4886424590004,x,1,0.7100974589993712,None,1,001,2023-10-17_22h30.59.890,MotorSequenceLearning,2023.1.3,None,
150,v,30,1,121,1,,,,,466.20533612500003,467.19780545899994,467.19780545899994,467.19780545899994,467.19780545899994,467.2074729170017,468.19646033400204,468.19646033400204,v,1,0.5602498340012971,None,1,001,2023-10-17_22h30.59.890,MotorSequenceLearning,2023.1.3,None,
50,c,30,2,122,2,,,,,468.763625167001,469.75814995900146,469.75814995900146,469.75814995900146,469.75814995900146,469.75814995900146,470.7557145000028,470.7557145000028,c,1,0.9171213329973398,None,1,001,2023-10-17_22h30.59.890,MotorSequenceLearning,2023.1.3,None,
-150,z,30,3,123,3,,,,,471.68046037500244,472.67500283400295,472.67500283400295,472.67500283400295,472.67500283400295,472.67500283400295,473.67279141700055,473.67279141700055,z,1,0.5759992500024964,None,1,001,2023-10-17_22h30.59.890,MotorSequenceLearning,2023.1.3,None,
-50,x,31,0,124,0,,,,,474.2553942500017,475.2473348750027,475.2473348750027,475.2473348750027,475.2473348750027,475.2473348750027,476.247283167002,476.247283167002,x,1,0.5765216670006339,None,1,001,2023-10-17_22h30.59.890,MotorSequenceLearning,2023.1.3,None,
150,v,31,1,125,1,,,,,476.82991562499956,477.82496545899994,477.82496545899994,477.82496545899994,477.82496545899994,477.82496545899994,478.8223617500007,478.8223617500007,v,1,0.51661937499739,None,1,001,2023-10-17_22h30.59.890,MotorSequenceLearning,2023.1.3,None,
50,c,31,2,126,2,,,,,479.3472275840031,480.3415851250029,480.3415851250029,480.3415851250029,480.3415851250029,480.3415851250029,481.3389647090007,481.3389647090007,c,1,0.4599392080017424,None,1,001,2023-10-17_22h30.59.890,MotorSequenceLearning,2023.1.3,None,
-150,z,31,3,127,3,,,,,481.8051376250005,482.79787666700213,482.79787666700213,482.79787666700213,482.79787666700213,482.79787666700213,483.7969361249998,483.7969361249998,z,1,0.8928169579994574,None,1,001,2023-10-17_22h30.59.890,MotorSequenceLearning,2023.1.3,None,
-50,x,32,0,128,0,,,,,484.69659758400303,485.6931586669998,485.6931586669998,485.6931586669998,485.6931586669998,485.6931586669998,486.68903325000065,486.68903325000065,c,0,1.2933033750014147,None,1,001,2023-10-17_22h30.59.890,MotorSequenceLearning,2023.1.3,None,
150,v,32,1,129,1,,,,,487.9883695839999,488.9805087500026,488.9805087500026,488.9805087500026,488.9805087500026,488.9805087500026,489.9798034170017,489.9798034170017,v,1,1.0102102080018085,None,1,001,2023-10-17_22h30.59.890,MotorSequenceLearning,2023.1.3,None,
50,c,32,2,130,2,,,,,490.996565292,491.99191300000166,491.99191300000166,491.99191300000166,491.99191300000166,491.99191300000166,492.9892878339997,492.9892878339997,x,0,0.7924682080010825,None,1,001,2023-10-17_22h30.59.890,MotorSequenceLearning,2023.1.3,None,
-150,z,32,3,131,3,,,,,493.78981591699994,494.7976902090013,494.7976902090013,494.7976902090013,494.7976902090013,494.814786875002,495.77995054200073,495.77995054200073,z,1,0.737850041998172,None,1,001,2023-10-17_22h30.59.890,MotorSequenceLearning,2023.1.3,None,
-50,x,33,0,132,0,,,,,496.5310515420024,497.51549345900276,497.51549345900276,497.51549345900276,497.51549345900276,497.52486695900006,498.5134472919999,498.5134472919999,x,1,1.1766257910021523,None,1,001,2023-10-17_22h30.59.890,MotorSequenceLearning,2023.1.3,None,
150,v,33,1,133,1,,,,,499.69691091700224,500.69146958400233,500.69146958400233,500.69146958400233,500.69146958400233,500.69146958400233,501.68959629200253,501.68959629200253,v,1,0.7508672500007378,None,1,001,2023-10-17_22h30.59.890,MotorSequenceLearning,2023.1.3,None,
50,c,33,2,134,2,,,,,502.44684166700245,503.44135391700183,503.44135391700183,503.44135391700183,503.44135391700183,503.44135391700183,504.43945745900055,504.43945745900055,c,1,1.3005043749981269,None,1,001,2023-10-17_22h30.59.890,MotorSequenceLearning,2023.1.3,None,
-150,z,33,3,135,3,,,,,505.74681862500074,506.74169579200316,506.74169579200316,506.74169579200316,506.74169579200316,506.74169579200316,507.7393381670008,507.7393381670008,z,1,0.8346587090018147,None,1,001,2023-10-17_22h30.59.890,MotorSequenceLearning,2023.1.3,None,
-50,x,34,0,136,0,,,,,508.5805434590002,509.5747703750021,509.5747703750021,509.5747703750021,509.5747703750021,509.5747703750021,510.57277083400186,510.57277083400186,x,1,0.634570584003086,None,1,001,2023-10-17_22h30.59.890,MotorSequenceLearning,2023.1.3,None,
150,v,34,1,137,1,,,,,511.213569042,512.2088390420031,512.2088390420031,512.2088390420031,512.2088390420031,512.2088390420031,513.2064130840008,513.2064130840008,v,1,0.6672142080024059,None,1,001,2023-10-17_22h30.59.890,MotorSequenceLearning,2023.1.3,None,
50,c,34,2,138,2,,,,,513.8804216669996,514.8753067500002,514.8753067500002,514.8753067500002,514.8753067500002,514.8753067500002,515.8729051250011,515.8729051250011,c,1,0.5840330829996674,None,1,001,2023-10-17_22h30.59.890,MotorSequenceLearning,2023.1.3,None,
-150,z,34,3,139,3,,,,,516.4644259170018,517.4581173340011,517.4581173340011,517.4581173340011,517.4581173340011,517.4581173340011,518.456185959003,518.456185959003,z,1,0.8586982499982696,None,1,001,2023-10-17_22h30.59.890,MotorSequenceLearning,2023.1.3,None,
-50,x,35,0,140,0,,,,,519.3224265839999,520.3099964590001,520.3099964590001,520.3099964590001,520.3099964590001,520.3192999590028,521.3142676670032,521.3142676670032,x,1,0.492550790997484,None,1,001,2023-10-17_22h30.59.890,MotorSequenceLearning,2023.1.3,None,
150,v,35,1,141,1,,,,,521.8137074590013,522.8090015420021,522.8090015420021,522.8090015420021,522.8090015420021,522.8090015420021,523.8063872920029,523.8063872920029,v,1,0.5669699999998556,None,1,001,2023-10-17_22h30.59.890,MotorSequenceLearning,2023.1.3,None,
50,c,35,2,142,2,,,,,524.3813384170026,525.375164709003,525.375164709003,525.375164709003,525.375164709003,525.375164709003,526.3729729590013,526.3729729590013,c,1,0.6431799999991199,None,1,001,2023-10-17_22h30.59.890,MotorSequenceLearning,2023.1.3,None,
-150,z,35,3,143,3,,,,,527.0224165420004,528.0144710420027,528.0144710420027,528.0144710420027,528.0144710420027,528.0144710420027,529.0139151250005,529.0139151250005,z,1,0.7024898749987187,None,1,001,2023-10-17_22h30.59.890,MotorSequenceLearning,2023.1.3,None,
-50,x,36,0,144,0,,,,,529.7232306670012,530.715089209003,530.715089209003,530.715089209003,530.715089209003,530.7246927920023,531.7144795420027,531.7144795420027,x,1,0.6258425419982814,None,1,001,2023-10-17_22h30.59.890,MotorSequenceLearning,2023.1.3,None,
150,v,36,1,145,1,,,,,532.3471679169998,533.3426065420026,533.3426065420026,533.3426065420026,533.3426065420026,533.3426065420026,534.3398210000014,534.3398210000014,v,1,0.6429916669985687,None,1,001,2023-10-17_22h30.59.890,MotorSequenceLearning,2023.1.3,None,
50,c,36,2,146,2,,,,,534.9891611670027,535.9819208750014,535.9819208750014,535.9819208750014,535.9819208750014,535.9819208750014,536.9812535420024,536.9812535420024,c,1,0.8671582909992139,None,1,001,2023-10-17_22h30.59.890,MotorSequenceLearning,2023.1.3,None,
-150,z,36,3,147,3,,,,,537.8559692920026,538.8434325840026,538.8434325840026,538.8434325840026,538.8434325840026,538.8528839589999,539.8474312920007,539.8474312920007,z,1,0.5509290839981986,None,1,001,2023-10-17_22h30.59.890,MotorSequenceLearning,2023.1.3,None,
-50,x,37,0,148,0,,,,,540.4054726670001,541.3932277090025,541.3932277090025,541.3932277090025,541.3932277090025,541.4019667089997,542.3906619590016,542.3906619590016,x,1,0.5671500829994329,None,1,001,2023-10-17_22h30.59.890,MotorSequenceLearning,2023.1.3,None,
150,v,37,1,149,1,,,,,542.9641386250005,543.9590182499996,543.9590182499996,543.9590182499996,543.9590182499996,543.9590182499996,544.9566830420008,544.9566830420008,v,1,0.701178457999049,None,1,001,2023-10-17_22h30.59.890,MotorSequenceLearning,2023.1.3,None,
50,c,37,2,150,2,,,,,545.665177584,546.6588402920024,546.6588402920024,546.6588402920024,546.6588402920024,546.6588402920024,547.656605375003,547.656605375003,c,1,0.8435163750000356,None,1,001,2023-10-17_22h30.59.890,MotorSequenceLearning,2023.1.3,None,
-150,z,37,3,151,3,,,,,548.5069360840025,549.5152395420009,549.5152395420009,549.5152395420009,549.5152395420009,549.5322456670001,550.4980604170014,550.4980604170014,z,1,0.7756341250023979,None,1,001,2023-10-17_22h30.59.890,MotorSequenceLearning,2023.1.3,None,
-50,x,38,0,152,0,,,,,551.281513209,552.2758366670023,552.2758366670023,552.2758366670023,552.2758366670023,552.2758366670023,553.2734617500028,553.2734617500028,x,1,0.609920165999938,None,1,001,2023-10-17_22h30.59.890,MotorSequenceLearning,2023.1.3,None,
150,v,38,1,153,1,,,,,553.8896704590006,554.8817620420014,554.8817620420014,554.8817620420014,554.8817620420014,554.8817620420014,555.8807603750029,555.8807603750029,v,1,0.5600189169999794,None,1,001,2023-10-17_22h30.59.890,MotorSequenceLearning,2023.1.3,None,
50,c,38,2,154,2,,,,,556.4484393750026,557.4439254999998,557.4439254999998,557.4439254999998,557.4439254999998,557.4439254999998,558.4402015840024,558.4402015840024,c,1,0.8843625419976888,None,1,001,2023-10-17_22h30.59.890,MotorSequenceLearning,2023.1.3,None,
-150,z,38,3,155,3,,,,,559.331110209001,560.3262534170026,560.3262534170026,560.3262534170026,560.3262534170026,560.3262534170026,561.3237673340009,561.3237673340009,z,1,0.8172618749995308,None,1,001,2023-10-17_22h30.59.890,MotorSequenceLearning,2023.1.3,None,
-50,x,39,0,156,0,,,,,562.1485854590028,563.1428780420028,563.1428780420028,563.1428780420028,563.1428780420028,563.1428780420028,564.1411469170016,564.1411469170016,x,1,0.9589488340025127,None,1,001,2023-10-17_22h30.59.890,MotorSequenceLearning,2023.1.3,None,
150,v,39,1,157,1,,,,,565.106957709002,566.0997877090012,566.0997877090012,566.0997877090012,566.0997877090012,566.1092764170025,567.0980855840025,567.0980855840025,v,1,1.2591444170029717,None,1,001,2023-10-17_22h30.59.890,MotorSequenceLearning,2023.1.3,None,
50,c,39,2,158,2,,,,,568.365132125,569.3599311670005,569.3599311670005,569.3599311670005,569.3599311670005,569.3599311670005,570.3569920000009,570.3569920000009,c,1,0.7262980000014068,None,1,001,2023-10-17_22h30.59.890,MotorSequenceLearning,2023.1.3,None,
-150,z,39,3,159,3,,,,,571.0898112499999,572.0990885419997,572.0990885419997,572.0990885419997,572.0990885419997,572.0990885419997,573.0820570420001,573.0820570420001,z,1,0.618194124999718,None,1,001,2023-10-17_22h30.59.890,MotorSequenceLearning,2023.1.3,None,
-50,x,40,0,160,0,,,,,573.7066489999997,574.698748584,574.698748584,574.698748584,574.698748584,574.698748584,575.6985682090017,575.6985682090017,x,1,0.43465937500150176,None,1,001,2023-10-17_22h30.59.890,MotorSequenceLearning,2023.1.3,None,
150,v,40,1,161,1,,,,,576.1399300000012,577.1322295419995,577.1322295419995,577.1322295419995,577.1322295419995,577.1322295419995,578.1312418340021,578.1312418340021,v,1,0.5769882499989762,None,1,001,2023-10-17_22h30.59.890,MotorSequenceLearning,2023.1.3,None,
50,c,40,2,162,2,,,,,578.7146660420003,579.7095864170005,579.7095864170005,579.7095864170005,579.7095864170005,579.7095864170005,580.7067199590019,580.7067199590019,c,1,0.9436309589982557,None,1,001,2023-10-17_22h30.59.890,MotorSequenceLearning,2023.1.3,None,
-150,z,40,3,163,3,,,,,581.6571140420019,582.6498125840008,582.6498125840008,582.6498125840008,582.6498125840008,582.6498125840008,583.6479104589998,583.6479104589998,z,1,0.5101956250000512,None,1,001,2023-10-17_22h30.59.890,MotorSequenceLearning,2023.1.3,None,
-50,x,41,0,164,0,,,,,584.1646234170003,585.1597963340027,585.1597963340027,585.1597963340027,585.1597963340027,585.1597963340027,586.1574930000024,586.1574930000024,x,1,0.5674747080011002,None,1,001,2023-10-17_22h30.59.890,MotorSequenceLearning,2023.1.3,None,
150,v,41,1,165,1,,,,,586.7312905420004,587.7261322920021,587.7261322920021,587.7261322920021,587.7261322920021,587.7261322920021,588.7239446250023,588.7239446250023,v,1,0.7013010420014325,None,1,001,2023-10-17_22h30.59.890,MotorSequenceLearning,2023.1.3,None,
50,c,41,2,166,2,,,,,589.4313844999997,590.4261394170026,590.4261394170026,590.4261394170026,590.4261394170026,590.4261394170026,591.4246667920015,591.4246667920015,c,1,0.8837832919998618,None,1,001,2023-10-17_22h30.59.890,MotorSequenceLearning,2023.1.3,None,
-150,z,41,3,167,3,,,,,592.315036709002,593.309608042,593.309608042,593.309608042,593.309608042,593.309608042,594.3074722920028,594.3074722920028,z,1,0.6012255839996214,None,1,001,2023-10-17_22h30.59.890,MotorSequenceLearning,2023.1.3,None,
-50,x,42,0,168,0,,,,,594.9155531670003,595.9104561250024,595.9104561250024,595.9104561250024,595.9104561250024,595.9104561250024,596.9075165000031,596.9075165000031,x,1,0.5505686670003342,None,1,001,2023-10-17_22h30.59.890,MotorSequenceLearning,2023.1.3,None,
150,v,42,1,169,1,,,,,597.4657967090025,598.4603357090018,598.4603357090018,598.4603357090018,598.4603357090018,598.4603357090018,599.457523000001,599.457523000001,v,1,0.7179078749977634,None,1,001,2023-10-17_22h30.59.890,MotorSequenceLearning,2023.1.3,None,
50,c,42,2,170,2,,,,,600.1820702500008,601.1765070840011,601.1765070840011,601.1765070840011,601.1765070840011,601.1765070840011,602.1744429999999,602.1744429999999,c,1,0.8497084170012386,None,1,001,2023-10-17_22h30.59.890,MotorSequenceLearning,2023.1.3,None,
-150,z,42,3,171,3,,,,,603.0322659170015,604.0184351250027,604.0184351250027,604.0184351250027,604.0184351250027,604.0330590420017,605.024828667003,605.024828667003,z,1,0.7744583749990852,None,1,001,2023-10-17_22h30.59.890,MotorSequenceLearning,2023.1.3,None,
-50,x,43,0,172,0,,,,,605.8066817920007,606.7947898340026,606.7947898340026,606.7947898340026,606.7947898340026,606.8045060000004,607.7913423749997,607.7913423749997,x,1,0.5175735000011628,None,1,001,2023-10-17_22h30.59.890,MotorSequenceLearning,2023.1.3,None,
150,v,43,1,173,1,,,,,608.3154448750029,609.3090026250029,609.3090026250029,609.3090026250029,609.3090026250029,609.3090026250029,610.3076414589996,610.3076414589996,v,1,2.0419666669986327,None,1,001,2023-10-17_22h30.59.890,MotorSequenceLearning,2023.1.3,None,
50,c,43,2,174,2,,,,,612.3567602920011,613.3494144169999,613.3494144169999,613.3494144169999,613.3494144169999,613.3494144169999,614.348586084001,614.348586084001,c,1,1.184127708998858,None,1,001,2023-10-17_22h30.59.890,MotorSequenceLearning,2023.1.3,None,
-150,z,43,3,175,3,,,,,615.5398692500021,616.5279567090001,616.5279567090001,616.5279567090001,616.5279567090001,616.5368293339998,617.5243691249998,617.5243691249998,z,1,0.6344794169999659,None,1,001,2023-10-17_22h30.59.890,MotorSequenceLearning,2023.1.3,None,
-50,x,44,0,176,0,,,,,618.1655164590011,619.1602973340014,619.1602973340014,619.1602973340014,619.1602973340014,619.1602973340014,620.158368417,620.158368417,x,1,0.4096652920015913,None,1,001,2023-10-17_22h30.59.890,MotorSequenceLearning,2023.1.3,None,
150,v,44,1,177,1,,,,,620.5744066670013,621.5829716250009,621.5829716250009,621.5829716250009,621.5829716250009,621.5829716250009,622.5652241669995,622.5652241669995,v,1,0.3936539999995148,None,1,001,2023-10-17_22h30.59.890,MotorSequenceLearning,2023.1.3,None,
50,c,44,2,178,2,,,,,622.9658082919996,623.9605008750004,623.9605008750004,623.9605008750004,623.9605008750004,623.9605008750004,624.9581534589997,624.9581534589997,c,1,0.5591165000005276,None,1,001,2023-10-17_22h30.59.890,MotorSequenceLearning,2023.1.3,None,
-150,z,44,3,179,3,,,,,625.523969834001,626.5164991670026,626.5164991670026,626.5164991670026,626.5164991670026,626.5164991670026,627.5152840840019,627.5152840840019,z,1,0.5267562919980264,None,1,001,2023-10-17_22h30.59.890,MotorSequenceLearning,2023.1.3,None,
-50,x,45,0,180,0,,,,,628.0496771670005,629.0437457920016,629.0437457920016,629.0437457920016,629.0437457920016,629.0437457920016,630.0414481670014,630.0414481670014,x,1,0.4343464169978688,None,1,001,2023-10-17_22h30.59.890,MotorSequenceLearning,2023.1.3,None,
150,v,45,1,181,1,,,,,630.4822382090024,631.4775532090025,631.4775532090025,631.4775532090025,631.4775532090025,631.4775532090025,632.4746222089998,632.4746222089998,v,1,0.6168347079983505,None,1,001,2023-10-17_22h30.59.890,MotorSequenceLearning,2023.1.3,None,
50,c,45,2,182,2,,,,,633.0994285840025,634.0939555000004,634.0939555000004,634.0939555000004,634.0939555000004,634.0939555000004,635.0917913750018,635.0917913750018,c,1,0.8508428340028331,None,1,001,2023-10-17_22h30.59.890,MotorSequenceLearning,2023.1.3,None,
-150,z,45,3,183,3,,,,,635.9492599590012,636.9440166250024,636.9440166250024,636.9440166250024,636.9440166250024,636.9440166250024,637.9413775419998,637.9413775419998,z,1,0.5080416669989063,None,1,001,2023-10-17_22h30.59.890,MotorSequenceLearning,2023.1.3,None,
-50,x,46,0,184,0,,,,,638.4567362920025,639.4446057090026,639.4446057090026,639.4446057090026,639.4446057090026,639.4534038750026,640.4414102090013,640.4414102090013,x,1,0.593091959002777,None,1,001,2023-10-17_22h30.59.890,MotorSequenceLearning,2023.1.3,None,
150,v,46,1,185,1,,,,,641.0411387500026,642.034029167,642.034029167,642.034029167,642.034029167,642.0437113340013,643.032776,643.032776,v,1,0.7929605829995126,None,1,001,2023-10-17_22h30.59.890,MotorSequenceLearning,2023.1.3,None,
50,c,46,2,186,2,,,,,643.8322850840013,644.827740292003,644.827740292003,644.827740292003,644.827740292003,644.827740292003,645.8248428340012,645.8248428340012,c,1,1.1011233749995881,None,1,001,2023-10-17_22h30.59.890,MotorSequenceLearning,2023.1.3,None,
-150,z,46,3,187,3,,,,,646.9323020420015,647.9276145840013,647.9276145840013,647.9276145840013,647.9276145840013,647.9276145840013,648.9250857920015,648.9250857920015,z,1,0.7597836249988177,None,1,001,2023-10-17_22h30.59.890,MotorSequenceLearning,2023.1.3,None,
-50,x,47,0,188,0,,,,,649.6910440000029,650.6831338750017,650.6831338750017,650.6831338750017,650.6831338750017,650.6831338750017,651.682398625002,651.682398625002,x,1,0.6518344579999393,None,1,001,2023-10-17_22h30.59.890,MotorSequenceLearning,2023.1.3,None,
150,v,47,1,189,1,,,,,652.3408666249998,653.3329317090029,653.3329317090029,653.3329317090029,653.3329317090029,653.3329317090029,654.3328431670016,654.3328431670016,v,1,0.5685269999994489,None,1,001,2023-10-17_22h30.59.890,MotorSequenceLearning,2023.1.3,None,
50,c,47,2,190,2,,,,,654.908032667001,655.899932417,655.899932417,655.899932417,655.899932417,655.899932417,656.8991870000027,656.8991870000027,c,1,0.9264464999978372,None,1,001,2023-10-17_22h30.59.890,MotorSequenceLearning,2023.1.3,None,
-150,z,47,3,191,3,,,,,657.8334270840023,658.8277518750001,658.8277518750001,658.8277518750001,658.8277518750001,658.8277518750001,659.8238032090012,659.8238032090012,z,1,0.6523788330014213,None,1,001,2023-10-17_22h30.59.890,MotorSequenceLearning,2023.1.3,None,
-50,x,48,0,192,0,,,,,660.4825622919998,661.4776237500009,661.4776237500009,661.4776237500009,661.4776237500009,661.4776237500009,662.4750601250016,662.4750601250016,x,1,0.6510351249999076,None,1,001,2023-10-17_22h30.59.890,MotorSequenceLearning,2023.1.3,None,
150,v,48,1,193,1,,,,,663.1326445420018,664.1272505000015,664.1272505000015,664.1272505000015,664.1272505000015,664.1272505000015,665.1253115,665.1253115,v,1,0.5176156249981432,None,1,001,2023-10-17_22h30.59.890,MotorSequenceLearning,2023.1.3,None,
50,c,48,2,194,2,,,,,665.6492433750027,666.6446100840003,666.6446100840003,666.6446100840003,666.6446100840003,666.6446100840003,667.6417960420004,667.6417960420004,c,1,0.6097147910004423,None,1,001,2023-10-17_22h30.59.890,MotorSequenceLearning,2023.1.3,None,
-150,z,48,3,195,3,,,,,668.2582351250021,669.2670819170016,669.2670819170016,669.2670819170016,669.2670819170016,669.2670819170016,670.2492150420003,670.2492150420003,z,1,0.7430144589998235,None,1,001,2023-10-17_22h30.59.890,MotorSequenceLearning,2023.1.3,None,
-50,x,49,0,196,0,,,,,670.9992275840013,671.9954722500006,671.9954722500006,671.9954722500006,671.9954722500006,671.9954722500006,672.9909757090027,672.9909757090027,x,1,1.068440458002442,None,1,001,2023-10-17_22h30.59.890,MotorSequenceLearning,2023.1.3,None,
150,v,49,1,197,1,,,,,674.0661902089996,675.0612727090011,675.0612727090011,675.0612727090011,675.0612727090011,675.0612727090011,676.0586935419997,676.0586935419997,v,1,1.0844072500003676,None,1,001,2023-10-17_22h30.59.890,MotorSequenceLearning,2023.1.3,None,
50,c,49,2,198,2,,,,,677.1499942500013,678.1449285840026,678.1449285840026,678.1449285840026,678.1449285840026,678.1449285840026,679.141927875,679.141927875,c,1,0.8250250829987635,None,1,001,2023-10-17_22h30.59.890,MotorSequenceLearning,2023.1.3,None,
-150,z,49,3,199,3,,,,,679.9746776250031,680.9638227089999,680.9638227089999,680.9638227089999,680.9638227089999,680.9733982500002,681.9669506669998,681.9669506669998,z,1,0.8015598329984641,None,1,001,2023-10-17_22h30.59.890,MotorSequenceLearning,2023.1.3,None,
-150,z,,,,,0,0,0,3,682.7811938750019,683.7839346250003,683.7839346250003,683.7839346250003,683.7839346250003,683.8010183750011,684.7660754170029,684.7660754170029,z,1,0.7435313330024655,None,1,001,2023-10-17_22h30.59.890,MotorSequenceLearning,2023.1.3,None,
150,v,,,,,0,1,1,1,685.5167108340029,686.5108963340026,686.5108963340026,686.5108963340026,686.5108963340026,686.5108963340026,687.5089360420025,687.5089360420025,v,1,2.566856875000667,None,1,001,2023-10-17_22h30.59.890,MotorSequenceLearning,2023.1.3,None,
50,c,,,,,0,2,2,2,690.0838725840003,691.0783653340004,691.0783653340004,691.0783653340004,691.0783653340004,691.0783653340004,692.0759071250031,692.0759071250031,c,1,2.032809084001201,None,1,001,2023-10-17_22h30.59.890,MotorSequenceLearning,2023.1.3,None,
-50,x,,,,,0,3,3,0,694.1172027089997,695.1112772500019,695.1112772500019,695.1112772500019,695.1112772500019,695.1112772500019,696.108972500002,696.108972500002,x,1,2.4333699169983447,None,1,001,2023-10-17_22h30.59.890,MotorSequenceLearning,2023.1.3,None,
-150,z,,,,,1,0,4,3,698.5505794170022,699.5442512920017,699.5442512920017,699.5442512920017,699.5442512920017,699.5442512920017,700.542385292003,700.542385292003,z,1,9.49323591600114,None,1,001,2023-10-17_22h30.59.890,MotorSequenceLearning,2023.1.3,None,
-150,z,,,,,1,1,5,3,710.0418761670007,711.0343656250006,711.0343656250006,711.0343656250006,711.0343656250006,711.043908417003,712.0342077090027,712.0342077090027,z,1,4.992377750000742,None,1,001,2023-10-17_22h30.59.890,MotorSequenceLearning,2023.1.3,None,
-150,z,,,,,1,2,6,3,717.0341990840025,718.0288018749998,718.0288018749998,718.0288018749998,718.0288018749998,718.0288018749998,719.0259101250012,719.0259101250012,z,1,1.750717833001545,None,1,001,2023-10-17_22h30.59.890,MotorSequenceLearning,2023.1.3,None,
50,c,,,,,1,3,7,2,720.7833260000007,721.7780862500003,721.7780862500003,721.7780862500003,721.7780862500003,721.7780862500003,722.7761339589997,722.7761339589997,c,1,3.451600917000178,None,1,001,2023-10-17_22h30.59.890,MotorSequenceLearning,2023.1.3,None,
-50,x,,,,,2,0,8,0,726.234429084001,727.2285301250013,727.2285301250013,727.2285301250013,727.2285301250013,727.2285301250013,728.2267464590004,728.2267464590004,x,1,0.7662962499998685,None,1,001,2023-10-17_22h30.59.890,MotorSequenceLearning,2023.1.3,None,
150,v,,,,,2,1,9,1,729.0010855,729.9953262920026,729.9953262920026,729.9953262920026,729.9953262920026,729.9953262920026,730.9928412920017,730.9928412920017,v,1,0.7243487910018303,None,1,001,2023-10-17_22h30.59.890,MotorSequenceLearning,2023.1.3,None,
150,v,,,,,2,2,10,1,731.7243126249996,732.713234875002,732.713234875002,732.713234875002,732.713234875002,732.7219104169999,733.7095357920007,733.7095357920007,v,1,0.9581518749982934,None,1,001,2023-10-17_22h30.59.890,MotorSequenceLearning,2023.1.3,None,
50,c,,,,,2,3,11,2,734.6752101250022,735.6625734170011,735.6625734170011,735.6625734170011,735.6625734170011,735.6717822090031,736.6596308340013,736.6596308340013,c,1,0.9082245829995372,None,1,001,2023-10-17_22h30.59.890,MotorSequenceLearning,2023.1.3,None,
150,v,,,,,3,0,12,1,737.575401625003,738.5627553750019,738.5627553750019,738.5627553750019,738.5627553750019,738.5715012090004,739.5600467090007,739.5600467090007,v,1,0.8763254170007713,None,1,001,2023-10-17_22h30.59.890,MotorSequenceLearning,2023.1.3,None,
150,v,,,,,3,1,13,1,740.4430504170014,741.4515705420017,741.4515705420017,741.4515705420017,741.4515705420017,741.4515705420017,742.4336783750005,742.4336783750005,v,1,0.5508865420015354,None,1,001,2023-10-17_22h30.59.890,MotorSequenceLearning,2023.1.3,None,
50,c,,,,,3,2,14,2,742.9921579170004,743.9803890420008,743.9803890420008,743.9803890420008,743.9803890420008,743.9900158750024,744.9763149589999,744.9763149589999,c,1,0.6343904999994265,None,1,001,2023-10-17_22h30.59.890,MotorSequenceLearning,2023.1.3,None,
-150,z,,,,,3,3,15,3,745.6174756670007,746.6120489170025,746.6120489170025,746.6120489170025,746.6120489170025,746.6120489170025,747.6097644170004,747.6097644170004,z,1,0.7679022080010327,None,1,001,2023-10-17_22h30.59.890,MotorSequenceLearning,2023.1.3,None,
50,c,,,,,4,0,16,2,748.3845123339997,749.3778943340003,749.3778943340003,749.3778943340003,749.3778943340003,749.3778943340003,750.376739542,750.376739542,c,1,0.5508573750012147,None,1,001,2023-10-17_22h30.59.890,MotorSequenceLearning,2023.1.3,None,
150,v,,,,,4,1,17,1,750.9339810840029,751.9287337919995,751.9287337919995,751.9287337919995,751.9287337919995,751.9287337919995,752.9264728340022,752.9264728340022,v,1,0.6011152079991007,None,1,001,2023-10-17_22h30.59.890,MotorSequenceLearning,2023.1.3,None,
-150,z,,,,,4,2,18,3,753.5340396250031,754.530096292001,754.530096292001,754.530096292001,754.530096292001,754.530096292001,755.526609667002,755.526609667002,z,1,0.9841982500001905,None,1,001,2023-10-17_22h30.59.890,MotorSequenceLearning,2023.1.3,None,
150,v,,,,,4,3,19,1,756.5176969170025,757.5122411670018,757.5122411670018,757.5122411670018,757.5122411670018,757.5122411670018,758.5102268750015,758.5102268750015,v,1,0.5746635830000741,None,1,001,2023-10-17_22h30.59.890,MotorSequenceLearning,2023.1.3,None,
50,c,,,,,5,0,20,2,759.0924234170016,760.0799115000009,760.0799115000009,760.0799115000009,760.0799115000009,760.0887514170026,761.0839823340029,761.0839823340029,c,1,0.751949292000063,None,1,001,2023-10-17_22h30.59.890,MotorSequenceLearning,2023.1.3,None,
50,c,,,,,5,1,21,2,761.8421015000022,762.8519502090021,762.8519502090021,762.8519502090021,762.8519502090021,762.8519502090021,763.8341427090018,763.8341427090018,c,1,0.8191539580002427,None,1,001,2023-10-17_22h30.59.890,MotorSequenceLearning,2023.1.3,None,
150,v,,,,,5,2,22,1,764.660202250001,765.6538664170002,765.6538664170002,765.6538664170002,765.6538664170002,765.6687260840008,766.6507285420012,766.6507285420012,v,1,0.543668375001289,None,1,001,2023-10-17_22h30.59.890,MotorSequenceLearning,2023.1.3,None,
150,v,,,,,5,3,23,1,767.2012537500013,768.1963666670017,768.1963666670017,768.1963666670017,768.1963666670017,768.1963666670017,769.1934710839996,769.1934710839996,v,1,0.5429982080022455,None,1,001,2023-10-17_22h30.59.890,MotorSequenceLearning,2023.1.3,None,
-50,x,,,,,6,0,24,0,769.7432212500025,770.7370177090015,770.7370177090015,770.7370177090015,770.7370177090015,770.7523347919996,771.7346573340001,771.7346573340001,x,1,0.6182855410006596,None,1,001,2023-10-17_22h30.59.890,MotorSequenceLearning,2023.1.3,None,
50,c,,,,,6,1,25,2,772.3593937090009,773.3520519170015,773.3520519170015,773.3520519170015,773.3520519170015,773.3520519170015,774.3508935000027,774.3508935000027,c,1,0.6429876660004084,None,1,001,2023-10-17_22h30.59.890,MotorSequenceLearning,2023.1.3,None,
50,c,,,,,6,2,26,2,775.0017715419999,775.9971073340021,775.9971073340021,775.9971073340021,775.9971073340021,775.9971073340021,776.9935761250017,776.9935761250017,c,1,0.5838315839973802,None,1,001,2023-10-17_22h30.59.890,MotorSequenceLearning,2023.1.3,None,
-50,x,,,,,6,3,27,0,777.5842173340025,778.5789528340028,778.5789528340028,778.5789528340028,778.5789528340028,778.5789528340028,779.5769402090009,779.5769402090009,x,1,0.6505140000008396,None,1,001,2023-10-17_22h30.59.890,MotorSequenceLearning,2023.1.3,None,
50,c,,,,,7,0,28,2,780.2351551669999,781.2294221250013,781.2294221250013,781.2294221250013,781.2294221250013,781.2294221250013,782.2272432090031,782.2272432090031,c,1,0.6166813330019068,None,1,001,2023-10-17_22h30.59.890,MotorSequenceLearning,2023.1.3,None,
50,c,,,,,7,1,29,2,782.8518938750021,783.8462453339998,783.8462453339998,783.8462453339998,783.8462453339998,783.8462453339998,784.8436914170015,784.8436914170015,c,1,0.6009567500004778,None,1,001,2023-10-17_22h30.59.890,MotorSequenceLearning,2023.1.3,None,
150,v,,,,,7,2,30,1,785.4514127090006,786.4464845000002,786.4464845000002,786.4464845000002,786.4464845000002,786.4464845000002,787.4436147920023,787.4436147920023,v,1,0.5427348330013047,None,1,001,2023-10-17_22h30.59.890,MotorSequenceLearning,2023.1.3,None,
50,c,,,,,7,3,31,2,787.9926388340027,788.9855951250029,788.9855951250029,788.9855951250029,788.9855951250029,788.9855951250029,789.9853030000013,789.9853030000013,c,1,0.3758585830000811,None,1,001,2023-10-17_22h30.59.890,MotorSequenceLearning,2023.1.3,None,
50,c,,,,,8,0,32,2,790.3677299590017,791.3623391250003,791.3623391250003,791.3623391250003,791.3623391250003,791.3623391250003,792.3604215000014,792.3604215000014,c,1,0.7840748749986233,None,1,001,2023-10-17_22h30.59.890,MotorSequenceLearning,2023.1.3,None,
-50,x,,,,,8,1,33,0,793.1512069170021,794.1466438750031,794.1466438750031,794.1466438750031,794.1466438750031,794.1466438750031,795.1437587500004,795.1437587500004,x,1,0.5585457079978369,None,1,001,2023-10-17_22h30.59.890,MotorSequenceLearning,2023.1.3,None,
150,v,,,,,8,2,34,1,795.7100385840022,796.6985745840029,796.6985745840029,796.6985745840029,796.6985745840029,796.7075844589999,797.7012957920015,797.7012957920015,v,1,0.6019369999994524,None,1,001,2023-10-17_22h30.59.890,MotorSequenceLearning,2023.1.3,None,
-50,x,,,,,8,3,35,0,798.3100087500025,799.3028861250023,799.3028861250023,799.3028861250023,799.3028861250023,799.3125085840002,800.3018692090009,800.3018692090009,x,1,0.6095180830016034,None,1,001,2023-10-17_22h30.59.890,MotorSequenceLearning,2023.1.3,None,
-150,z,,,,,9,0,36,3,800.918070959,801.9141365840005,801.9141365840005,801.9141365840005,801.9141365840005,801.9141365840005,802.9105249170025,802.9105249170025,z,1,0.6007032079978671,None,1,001,2023-10-17_22h30.59.890,MotorSequenceLearning,2023.1.3,None,
-150,z,,,,,9,1,37,3,803.5181387090015,804.513209292003,804.513209292003,804.513209292003,804.513209292003,804.513209292003,805.5106089590008,805.5106089590008,z,1,0.9583444170020812,None,1,001,2023-10-17_22h30.59.890,MotorSequenceLearning,2023.1.3,None,
-150,z,,,,,9,2,38,3,806.4764544999998,807.4639655419996,807.4639655419996,807.4639655419996,807.4639655419996,807.4727359589997,808.4606241670008,808.4606241670008,z,1,0.6675942080000823,None,1,001,2023-10-17_22h30.59.890,MotorSequenceLearning,2023.1.3,None,
-50,x,,,,,9,3,39,0,809.135599792,810.1297245420028,810.1297245420028,810.1297245420028,810.1297245420028,810.1297245420028,811.1277732500021,811.1277732500021,x,1,0.47405854200042086,None,1,001,2023-10-17_22h30.59.890,MotorSequenceLearning,2023.1.3,None,
-150,z,,,,,10,0,40,3,811.6090060839997,812.5973751250021,812.5973751250021,812.5973751250021,812.5973751250021,812.6060864170031,813.594048959003,813.594048959003,z,1,0.7248008329988807,None,1,001,2023-10-17_22h30.59.890,MotorSequenceLearning,2023.1.3,None,
-150,z,,,,,10,1,41,3,814.3263605419997,815.3361506250003,815.3361506250003,815.3361506250003,815.3361506250003,815.3361506250003,816.318875625002,816.318875625002,z,1,0.7090029580031114,None,1,001,2023-10-17_22h30.59.890,MotorSequenceLearning,2023.1.3,None,
50,c,,,,,10,2,42,2,817.0358507920027,818.0294365420013,818.0294365420013,818.0294365420013,818.0294365420013,818.0294365420013,819.0274372090025,819.0274372090025,c,1,2.0505825000000186,None,1,001,2023-10-17_22h30.59.890,MotorSequenceLearning,2023.1.3,None,
-150,z,,,,,10,3,43,3,821.0857349170001,822.0800930840014,822.0800930840014,822.0800930840014,822.0800930840014,822.0800930840014,823.077932250002,823.077932250002,z,1,0.9415102499988279,None,1,001,2023-10-17_22h30.59.890,MotorSequenceLearning,2023.1.3,None,
50,c,,,,,11,0,44,2,824.0269650000009,825.0142255419996,825.0142255419996,825.0142255419996,825.0142255419996,825.0229329590002,826.0185704169999,826.0185704169999,c,1,0.9599353329977021,None,1,001,2023-10-17_22h30.59.890,MotorSequenceLearning,2023.1.3,None,
-50,x,,,,,11,1,45,0,826.9858029589996,827.9802908750025,827.9802908750025,827.9802908750025,827.9802908750025,827.9802908750025,828.9776263750027,828.9776263750027,x,1,0.7262084590001905,None,1,001,2023-10-17_22h30.59.890,MotorSequenceLearning,2023.1.3,None,
50,c,,,,,11,2,46,2,829.7101191250003,830.702421500002,830.702421500002,830.702421500002,830.702421500002,830.702421500002,831.7016112500023,831.7016112500023,c,1,0.6437674999979208,None,1,001,2023-10-17_22h30.59.890,MotorSequenceLearning,2023.1.3,None,
-50,x,,,,,11,3,47,0,832.3522931670013,833.3464299590014,833.3464299590014,833.3464299590014,833.3464299590014,833.3464299590014,834.3443991250024,834.3443991250024,x,1,0.8676452079998853,None,1,001,2023-10-17_22h30.59.890,MotorSequenceLearning,2023.1.3,None,
-150,z,,,,,12,0,48,3,835.2187124170014,836.2148730840017,836.2148730840017,836.2148730840017,836.2148730840017,836.2148730840017,837.211053209001,837.211053209001,z,1,0.834492500001943,None,1,001,2023-10-17_22h30.59.890,MotorSequenceLearning,2023.1.3,None,
-50,x,,,,,12,1,49,0,838.0524765000009,839.0480399590015,839.0480399590015,839.0480399590015,839.0480399590015,839.0480399590015,840.0443573340017,840.0443573340017,x,1,0.8676697500013688,None,1,001,2023-10-17_22h30.59.890,MotorSequenceLearning,2023.1.3,None,
50,c,,,,,12,2,50,2,840.9189515420003,841.913192875003,841.913192875003,841.913192875003,841.913192875003,841.913192875003,842.9110807090001,842.9110807090001,c,1,1.5434206669997366,None,1,001,2023-10-17_22h30.59.890,MotorSequenceLearning,2023.1.3,None,
-150,z,,,,,12,3,51,3,844.4612702500017,845.4548831669999,845.4548831669999,845.4548831669999,845.4548831669999,845.4700807090012,846.451912792003,846.451912792003,z,1,1.043543250001676,None,1,001,2023-10-17_22h30.59.890,MotorSequenceLearning,2023.1.3,None,
50,c,,,,,13,0,52,2,847.5021975420022,848.4971616670009,848.4971616670009,848.4971616670009,848.4971616670009,848.4971616670009,849.4945033750009,849.4945033750009,c,1,0.8674826250025944,None,1,001,2023-10-17_22h30.59.890,MotorSequenceLearning,2023.1.3,None,
-50,x,,,,,13,1,53,0,850.3687955420028,851.3639271250031,851.3639271250031,851.3639271250031,851.3639271250031,851.3639271250031,852.3612755000031,852.3612755000031,x,1,0.8504114579991437,None,1,001,2023-10-17_22h30.59.890,MotorSequenceLearning,2023.1.3,None,
-150,z,,,,,13,2,54,3,853.219511542,854.2140780840018,854.2140780840018,854.2140780840018,854.2140780840018,854.2140780840018,855.2113917090028,855.2113917090028,z,1,0.9585934590031684,None,1,001,2023-10-17_22h30.59.890,MotorSequenceLearning,2023.1.3,None,
50,c,,,,,13,3,55,2,856.1773615420025,857.1646302090012,857.1646302090012,857.1646302090012,857.1646302090012,857.1733755000023,858.1688117090016,858.1688117090016,c,1,1.143416167000396,None,1,001,2023-10-17_22h30.59.890,MotorSequenceLearning,2023.1.3,None,
50,c,,,,,14,0,56,2,859.3191426670019,860.3133882500006,860.3133882500006,860.3133882500006,860.3133882500006,860.3133882500006,861.3120106250026,861.3120106250026,c,1,1.2425716660000035,None,1,001,2023-10-17_22h30.59.890,MotorSequenceLearning,2023.1.3,None,
-50,x,,,,,14,1,57,0,862.5611760000029,863.5532175840017,863.5532175840017,863.5532175840017,863.5532175840017,863.5532175840017,864.5525447500004,864.5525447500004,x,1,0.45191833400167525,None,1,001,2023-10-17_22h30.59.890,MotorSequenceLearning,2023.1.3,None,
-150,z,,,,,14,2,58,3,865.0111637500013,866.0199579170003,866.0199579170003,866.0199579170003,866.0199579170003,866.0370688340008,867.002292125002,867.002292125002,z,1,0.6597531250008615,None,1,001,2023-10-17_22h30.59.890,MotorSequenceLearning,2023.1.3,None,
-50,x,,,,,14,3,59,0,867.6695694170012,868.6652245000005,868.6652245000005,868.6652245000005,868.6652245000005,868.6652245000005,869.6617292090014,869.6617292090014,x,1,1.6928718749986729,None,1,001,2023-10-17_22h30.59.890,MotorSequenceLearning,2023.1.3,None,
-50,x,,,,,15,0,60,0,871.3608401250021,872.3540182090001,872.3540182090001,872.3540182090001,872.3540182090001,872.3540182090001,873.3524137920031,873.3524137920031,x,1,0.4436705840016657,None,1,001,2023-10-17_22h30.59.890,MotorSequenceLearning,2023.1.3,None,
50,c,,,,,15,1,61,2,873.8026694590008,874.7973767090007,874.7973767090007,874.7973767090007,874.7973767090007,874.7973767090007,875.794972417003,875.794972417003,c,1,0.6503369169986399,None,1,001,2023-10-17_22h30.59.890,MotorSequenceLearning,2023.1.3,None,
150,v,,,,,15,2,62,1,876.4532478340006,877.4476870840008,877.4476870840008,877.4476870840008,877.4476870840008,877.4476870840008,878.4450179590021,878.4450179590021,v,1,0.849965165998583,None,1,001,2023-10-17_22h30.59.890,MotorSequenceLearning,2023.1.3,None,
150,v,,,,,15,3,63,1,879.3031062920018,880.2972835420005,880.2972835420005,880.2972835420005,880.2972835420005,880.2972835420005,881.2953619170003,881.2953619170003,v,1,0.6342970000005153,None,1,001,2023-10-17_22h30.59.890,MotorSequenceLearning,2023.1.3,None,
-150,z,,,,,16,0,64,3,881.9361940420022,882.9305047920025,882.9305047920025,882.9305047920025,882.9305047920025,882.9305047920025,883.9283081249996,883.9283081249996,z,1,0.7747062090020336,None,1,001,2023-10-17_22h30.59.890,MotorSequenceLearning,2023.1.3,None,
150,v,,,,,16,1,65,1,884.7103126250004,885.6985518750007,885.6985518750007,885.6985518750007,885.6985518750007,885.7078413750023,886.695116875002,886.695116875002,v,1,0.6009437499997148,None,1,001,2023-10-17_22h30.59.890,MotorSequenceLearning,2023.1.3,None,
150,v,,,,,16,2,66,1,887.3034768750003,888.2971202090012,888.2971202090012,888.2971202090012,888.2971202090012,888.2971202090012,889.2951864590032,889.2951864590032,v,1,0.560003874998074,None,1,001,2023-10-17_22h30.59.890,MotorSequenceLearning,2023.1.3,None,
-50,x,,,,,16,3,67,0,889.8620823340025,890.8556333750021,890.8556333750021,890.8556333750021,890.8556333750021,890.8708155000022,891.8526527920003,891.8526527920003,x,1,0.7095746669983782,None,1,001,2023-10-17_22h30.59.890,MotorSequenceLearning,2023.1.3,None,
-150,z,,,,,17,0,68,3,892.5693505420022,893.564577125002,893.564577125002,893.564577125002,893.564577125002,893.564577125002,894.5614644590023,894.5614644590023,z,1,0.543698042001779,None,1,001,2023-10-17_22h30.59.890,MotorSequenceLearning,2023.1.3,None,
50,c,,,,,17,1,69,2,895.1112443340025,896.1039928749997,896.1039928749997,896.1039928749997,896.1039928749997,896.1039928749997,897.1029135839999,897.1029135839999,c,1,0.9521223330011708,None,1,001,2023-10-17_22h30.59.890,MotorSequenceLearning,2023.1.3,None,
150,v,,,,,17,2,70,1,898.0617999170026,899.0541612920024,899.0541612920024,899.0541612920024,899.0541612920024,899.0541612920024,900.0531318339999,900.0531318339999,v,1,0.6522855000002892,None,1,001,2023-10-17_22h30.59.890,MotorSequenceLearning,2023.1.3,None,
150,v,,,,,17,3,71,1,900.711517959,901.7045819170016,901.7045819170016,901.7045819170016,901.7045819170016,901.7141986670031,902.7028097090006,902.7028097090006,v,1,0.583806958002242,None,1,001,2023-10-17_22h30.59.890,MotorSequenceLearning,2023.1.3,None,
150,v,,,,,18,0,72,1,903.294120417002,904.2820666250009,904.2820666250009,904.2820666250009,904.2820666250009,904.2907814999999,905.2790912090022,905.2790912090022,v,1,0.559362832998886,None,1,001,2023-10-17_22h30.59.890,MotorSequenceLearning,2023.1.3,None,
50,c,,,,,18,1,73,2,905.8447090840018,906.8371032920004,906.8371032920004,906.8371032920004,906.8371032920004,906.8371032920004,907.8362260000031,907.8362260000031,c,1,0.7344678749977902,None,1,001,2023-10-17_22h30.59.890,MotorSequenceLearning,2023.1.3,None,
150,v,,,,,18,2,74,1,908.5781364590002,909.5655626670014,909.5655626670014,909.5655626670014,909.5655626670014,909.5743712920012,910.5694452090029,910.5694452090029,v,1,0.47664725000140606,None,1,001,2023-10-17_22h30.59.890,MotorSequenceLearning,2023.1.3,None,
150,v,,,,,18,3,75,1,911.0530605840031,912.0468197090013,912.0468197090013,912.0468197090013,912.0468197090013,912.0468197090013,913.0455887919998,913.0455887919998,v,1,0.6920481660017685,None,1,001,2023-10-17_22h30.59.890,MotorSequenceLearning,2023.1.3,None,
-150,z,,,,,19,0,76,3,913.74499775,914.7330502920013,914.7330502920013,914.7330502920013,914.7330502920013,914.7424429170023,915.7363429590005,915.7363429590005,z,1,0.818987875001767,None,1,001,2023-10-17_22h30.59.890,MotorSequenceLearning,2023.1.3,None,
-50,x,,,,,19,1,77,0,916.5616543340002,917.5536829170014,917.5536829170014,917.5536829170014,917.5536829170014,917.5536829170014,918.5534090420006,918.5534090420006,x,1,0.4599569589991006,None,1,001,2023-10-17_22h30.59.890,MotorSequenceLearning,2023.1.3,None,
50,c,,,,,19,2,78,2,919.0201992500006,920.0148849590005,920.0148849590005,920.0148849590005,920.0148849590005,920.0148849590005,921.0116296670021,921.0116296670021,c,1,1.101262708001741,None,1,001,2023-10-17_22h30.59.890,MotorSequenceLearning,2023.1.3,None,
-150,z,,,,,19,3,79,3,922.119569167,923.1143602500015,923.1143602500015,923.1143602500015,923.1143602500015,923.1143602500015,924.1124083340001,924.1124083340001,z,1,0.6506851670019387,None,1,001,2023-10-17_22h30.59.890,MotorSequenceLearning,2023.1.3,None,
-150,z,,,,,20,0,80,3,924.7706754589999,925.7657553749996,925.7657553749996,925.7657553749996,925.7657553749996,925.7657553749996,926.7624045000011,926.7624045000011,z,1,1.6176655829985975,None,1,001,2023-10-17_22h30.59.890,MotorSequenceLearning,2023.1.3,None,
-50,x,,,,,20,1,81,0,928.3867372090026,929.3812982500021,929.3812982500021,929.3812982500021,929.3812982500021,929.3812982500021,930.3791614590009,930.3791614590009,x,1,0.701534708001418,None,1,001,2023-10-17_22h30.59.890,MotorSequenceLearning,2023.1.3,None,
-150,z,,,,,20,2,82,3,931.0869697920025,932.0814695840018,932.0814695840018,932.0814695840018,932.0814695840018,932.0814695840018,933.0791474170001,933.0791474170001,z,1,0.7763554580014898,None,1,001,2023-10-17_22h30.59.890,MotorSequenceLearning,2023.1.3,None,
-50,x,,,,,20,3,83,0,933.8622541670011,934.8709947090028,934.8709947090028,934.8709947090028,934.8709947090028,934.8880654170025,935.8536635420023,935.8536635420023,x,1,0.5928002090004156,None,1,001,2023-10-17_22h30.59.890,MotorSequenceLearning,2023.1.3,None,
50,c,,,,,21,0,84,2,936.4540501250012,937.4485656249999,937.4485656249999,937.4485656249999,937.4485656249999,937.4485656249999,938.4460351670023,938.4460351670023,c,1,0.6246428750018822,None,1,001,2023-10-17_22h30.59.890,MotorSequenceLearning,2023.1.3,None,
-50,x,,,,,21,1,85,0,939.0779721250001,940.0706441670009,940.0706441670009,940.0706441670009,940.0706441670009,940.0706441670009,941.070108750002,941.070108750002,x,1,0.8857577499984473,None,1,001,2023-10-17_22h30.59.890,MotorSequenceLearning,2023.1.3,None,
-150,z,,,,,21,2,86,3,941.9627814590021,942.9711203750012,942.9711203750012,942.9711203750012,942.9711203750012,942.9882147919998,943.953248875001,943.953248875001,z,1,0.5268153750002966,None,1,001,2023-10-17_22h30.59.890,MotorSequenceLearning,2023.1.3,None,
150,v,,,,,21,3,87,1,944.4869310419999,945.4814994590015,945.4814994590015,945.4814994590015,945.4814994590015,945.4814994590015,946.4792857920002,946.4792857920002,v,1,0.5508565829986765,None,1,001,2023-10-17_22h30.59.890,MotorSequenceLearning,2023.1.3,None,
-50,x,,,,,22,0,88,0,947.0377828340024,948.0317995840014,948.0317995840014,948.0317995840014,948.0317995840014,948.0317995840014,949.0300569589999,949.0300569589999,x,1,0.616013708000537,None,1,001,2023-10-17_22h30.59.890,MotorSequenceLearning,2023.1.3,None,
-50,x,,,,,22,1,89,0,949.6543020839999,950.6489473340007,950.6489473340007,950.6489473340007,950.6489473340007,950.6489473340007,951.6461710000003,951.6461710000003,x,1,0.5261840840030345,None,1,001,2023-10-17_22h30.59.890,MotorSequenceLearning,2023.1.3,None,
-50,x,,,,,22,2,90,0,952.1791053340021,953.1881569590005,953.1881569590005,953.1881569590005,953.1881569590005,953.1881569590005,954.1711852090011,954.1711852090011,x,1,0.9348904159996891,None,1,001,2023-10-17_22h30.59.890,MotorSequenceLearning,2023.1.3,None,
-150,z,,,,,22,3,91,3,955.112938000002,956.1048019590016,956.1048019590016,956.1048019590016,956.1048019590016,956.1144412089998,957.1034911670031,957.1034911670031,z,1,0.6766159170001629,None,1,001,2023-10-17_22h30.59.890,MotorSequenceLearning,2023.1.3,None,
-150,z,,,,,23,0,92,3,957.7869496250023,958.7822157500013,958.7822157500013,958.7822157500013,958.7822157500013,958.7822157500013,959.7802559170013,959.7802559170013,z,1,0.7499648750017514,None,1,001,2023-10-17_22h30.59.890,MotorSequenceLearning,2023.1.3,None,
-150,z,,,,,23,1,93,3,960.5376280000019,961.5323302920006,961.5323302920006,961.5323302920006,961.5323302920006,961.5323302920006,962.5297727090001,962.5297727090001,z,1,0.5083690840001509,None,1,001,2023-10-17_22h30.59.890,MotorSequenceLearning,2023.1.3,None,
-50,x,,,,,23,2,94,0,963.0454958750015,964.0330552500018,964.0330552500018,964.0330552500018,964.0330552500018,964.0417662920008,965.0368294590007,965.0368294590007,x,1,0.7106387089988857,None,1,001,2023-10-17_22h30.59.890,MotorSequenceLearning,2023.1.3,None,
150,v,,,,,23,3,95,1,965.7542626670001,966.7489044590002,966.7489044590002,966.7489044590002,966.7489044590002,966.7489044590002,967.7463410840028,967.7463410840028,v,1,0.6174937920004595,None,1,001,2023-10-17_22h30.59.890,MotorSequenceLearning,2023.1.3,None,
-150,z,,,,,24,0,96,3,968.3704398750015,969.3656420000007,969.3656420000007,969.3656420000007,969.3656420000007,969.3656420000007,970.3630330840024,970.3630330840024,z,1,0.7174783749978815,None,1,001,2023-10-17_22h30.59.890,MotorSequenceLearning,2023.1.3,None,
-150,z,,,,,24,1,97,3,971.0880971670013,972.0833472090017,972.0833472090017,972.0833472090017,972.0833472090017,972.0833472090017,973.0807046670016,973.0807046670016,z,1,0.7923322079986974,None,1,001,2023-10-17_22h30.59.890,MotorSequenceLearning,2023.1.3,None,
50,c,,,,,24,2,98,2,973.8799030840019,974.8732977090003,974.8732977090003,974.8732977090003,974.8732977090003,974.8886332500006,975.8705560000017,975.8705560000017,c,1,1.6192064999995637,None,1,001,2023-10-17_22h30.59.890,MotorSequenceLearning,2023.1.3,None,
-50,x,,,,,24,3,99,0,977.4965644170006,978.5049456670022,978.5049456670022,978.5049456670022,978.5049456670022,978.522035375001,979.487279334,979.487279334,x,1,0.45986762499887845,None,1,001,2023-10-17_22h30.59.890,MotorSequenceLearning,2023.1.3,None,
150,v,,,,,25,0,100,1,979.9546383750021,980.9484410840014,980.9484410840014,980.9484410840014,980.9484410840014,980.9484410840014,981.9465563340018,981.9465563340018,v,1,0.6253479170009086,None,1,001,2023-10-17_22h30.59.890,MotorSequenceLearning,2023.1.3,None,
50,c,,,,,25,1,101,2,982.5789797920006,983.567062584003,983.567062584003,983.567062584003,983.567062584003,983.5759673339999,984.5707853750027,984.5707853750027,c,1,0.5932224159987527,None,1,001,2023-10-17_22h30.59.890,MotorSequenceLearning,2023.1.3,None,
50,c,,,,,25,2,102,2,985.1705222500023,986.1651664590026,986.1651664590026,986.1651664590026,986.1651664590026,986.1651664590026,987.1631236249996,987.1631236249996,c,1,0.5844925829987915,None,1,001,2023-10-17_22h30.59.890,MotorSequenceLearning,2023.1.3,None,
-150,z,,,,,25,3,103,3,987.7545879999998,988.7498233340011,988.7498233340011,988.7498233340011,988.7498233340011,988.7498233340011,989.7464721670003,989.7464721670003,z,1,0.5598684169999615,None,1,001,2023-10-17_22h30.59.890,MotorSequenceLearning,2023.1.3,None,
-50,x,,,,,26,0,104,0,990.3123668340013,991.3043948750019,991.3043948750019,991.3043948750019,991.3043948750019,991.3043948750019,992.3049903749998,992.3049903749998,x,1,0.3926361250014452,None,1,001,2023-10-17_22h30.59.890,MotorSequenceLearning,2023.1.3,None,
150,v,,,,,26,1,105,1,992.7041037500021,993.7004722500023,993.7004722500023,993.7004722500023,993.7004722500023,993.7004722500023,994.6967184170026,994.6967184170026,v,1,0.7099892500009446,None,1,001,2023-10-17_22h30.59.890,MotorSequenceLearning,2023.1.3,None,
-150,z,,,,,26,2,106,3,995.4130977920031,996.4061113340031,996.4061113340031,996.4061113340031,996.4061113340031,996.4061113340031,997.4044322500013,997.4044322500013,z,1,0.5426465419986926,None,1,001,2023-10-17_22h30.59.890,MotorSequenceLearning,2023.1.3,None,
-150,z,,,,,26,3,107,3,997.9550880839997,998.9493800420023,998.9493800420023,998.9493800420023,998.9493800420023,998.9493800420023,999.9470178340016,999.9470178340016,z,1,0.5168060409996542,None,1,001,2023-10-17_22h30.59.890,MotorSequenceLearning,2023.1.3,None,
-150,z,,,,,27,0,108,3,1000.4715882500022,1001.4656218340024,1001.4656218340024,1001.4656218340024,1001.4656218340024,1001.4656218340024,1002.4635347920012,1002.4635347920012,z,1,0.7177085410003201,None,1,001,2023-10-17_22h30.59.890,MotorSequenceLearning,2023.1.3,None,
-50,x,,,,,27,1,109,0,1003.1879876670027,1004.1826059590021,1004.1826059590021,1004.1826059590021,1004.1826059590021,1004.1826059590021,1005.1803409170025,1005.1803409170025,x,1,0.4834768750006333,None,1,001,2023-10-17_22h30.59.890,MotorSequenceLearning,2023.1.3,None,
-150,z,,,,,27,2,110,3,1005.6717456250008,1006.6657386670013,1006.6657386670013,1006.6657386670013,1006.6657386670013,1006.6657386670013,1007.6635087920004,1007.6635087920004,z,1,1.0833416669993312,None,1,001,2023-10-17_22h30.59.890,MotorSequenceLearning,2023.1.3,None,
-50,x,,,,,27,3,111,0,1008.7551735000015,1009.7495506250016,1009.7495506250016,1009.7495506250016,1009.7495506250016,1009.7495506250016,1010.7469180000007,1010.7469180000007,x,1,0.5010251659987262,None,1,001,2023-10-17_22h30.59.890,MotorSequenceLearning,2023.1.3,None,
50,c,,,,,28,0,112,2,1011.2546398750019,1012.2491082500019,1012.2491082500019,1012.2491082500019,1012.2491082500019,1012.2491082500019,1013.2468312090023,1013.2468312090023,c,1,0.5584289999969769,None,1,001,2023-10-17_22h30.59.890,MotorSequenceLearning,2023.1.3,None,
150,v,,,,,28,1,113,1,1013.8123324590015,1014.806163250003,1014.806163250003,1014.806163250003,1014.806163250003,1014.806163250003,1015.8053874590005,1015.8053874590005,v,1,0.7419184999998834,None,1,001,2023-10-17_22h30.59.890,MotorSequenceLearning,2023.1.3,None,
-150,z,,,,,28,2,114,3,1016.5551663750011,1017.5494582499996,1017.5494582499996,1017.5494582499996,1017.5494582499996,1017.5494582499996,1018.5471168750009,1018.5471168750009,z,1,0.4671029590026592,None,1,001,2023-10-17_22h30.59.890,MotorSequenceLearning,2023.1.3,None,
50,c,,,,,28,3,115,2,1019.0211888750018,1020.0158986250026,1020.0158986250026,1020.0158986250026,1020.0158986250026,1020.0158986250026,1021.0146527920006,1021.0146527920006,c,1,0.6256972919982218,None,1,001,2023-10-17_22h30.59.890,MotorSequenceLearning,2023.1.3,None,
-50,x,,,,,29,0,116,0,1021.6468985419997,1022.6555837920023,1022.6555837920023,1022.6555837920023,1022.6555837920023,1022.6726817920025,1023.6379005420022,1023.6379005420022,x,1,0.5600769579978078,None,1,001,2023-10-17_22h30.59.890,MotorSequenceLearning,2023.1.3,None,
50,c,,,,,29,1,117,2,1024.2044249589999,1025.1991894590028,1025.1991894590028,1025.1991894590028,1025.1991894590028,1025.1991894590028,1026.1973450840014,1026.1973450840014,c,1,0.6914731249999022,None,1,001,2023-10-17_22h30.59.890,MotorSequenceLearning,2023.1.3,None,
-50,x,,,,,29,2,118,0,1026.895944625001,1027.8836908340018,1027.8836908340018,1027.8836908340018,1027.8836908340018,1027.8924755840017,1028.8811055000006,1028.8811055000006,x,1,0.792405250002048,None,1,001,2023-10-17_22h30.59.890,MotorSequenceLearning,2023.1.3,None,
150,v,,,,,29,3,119,1,1029.6801570000025,1030.6725521670014,1030.6725521670014,1030.6725521670014,1030.6725521670014,1030.6725521670014,1031.6711052090031,1031.6711052090031,c,0,0.5691670409978542,None,1,001,2023-10-17_22h30.59.890,MotorSequenceLearning,2023.1.3,None,
50,c,,,,,30,0,120,2,1032.2470429170025,1033.239891000001,1033.239891000001,1033.239891000001,1033.239891000001,1033.239891000001,1034.237999334,1034.237999334,c,1,0.43463041599898133,None,1,001,2023-10-17_22h30.59.890,MotorSequenceLearning,2023.1.3,None,
50,c,,,,,30,1,121,2,1034.6799867090012,1035.6669290419995,1035.6669290419995,1035.6669290419995,1035.6669290419995,1035.6757880000005,1036.671487042,1036.671487042,c,1,0.4023718749995169,None,1,001,2023-10-17_22h30.59.890,MotorSequenceLearning,2023.1.3,None,
-50,x,,,,,30,2,122,0,1037.0802993750003,1038.0726351670019,1038.0726351670019,1038.0726351670019,1038.0726351670019,1038.0726351670019,1039.0714102090024,1039.0714102090024,x,1,0.6013044999999693,None,1,001,2023-10-17_22h30.59.890,MotorSequenceLearning,2023.1.3,None,
50,c,,,,,30,3,123,2,1039.6798824590005,1040.672265709003,1040.672265709003,1040.672265709003,1040.672265709003,1040.672265709003,1041.6723188340002,1041.6723188340002,c,1,0.6754515419997915,None,1,001,2023-10-17_22h30.59.890,MotorSequenceLearning,2023.1.3,None,
-50,x,,,,,31,0,124,0,1042.3558132090002,1043.3495028340003,1043.3495028340003,1043.3495028340003,1043.3495028340003,1043.3495028340003,1044.3473332089998,1044.3473332089998,x,1,0.7340909170015948,None,1,001,2023-10-17_22h30.59.890,MotorSequenceLearning,2023.1.3,None,
-150,z,,,,,31,1,125,3,1045.088952334001,1046.0834769169996,1046.0834769169996,1046.0834769169996,1046.0834769169996,1046.0834769169996,1047.080758125001,1047.080758125001,z,1,0.6168411670005298,None,1,001,2023-10-17_22h30.59.890,MotorSequenceLearning,2023.1.3,None,
150,v,,,,,31,2,126,1,1047.7057503340002,1048.7000176670008,1048.7000176670008,1048.7000176670008,1048.7000176670008,1048.7000176670008,1049.6974935420003,1049.6974935420003,v,1,0.5670755829996779,None,1,001,2023-10-17_22h30.59.890,MotorSequenceLearning,2023.1.3,None,
-150,z,,,,,31,3,127,3,1050.272444084003,1051.2668481250003,1051.2668481250003,1051.2668481250003,1051.2668481250003,1051.2668481250003,1052.26462025,1052.26462025,z,1,0.583385542002361,None,1,001,2023-10-17_22h30.59.890,MotorSequenceLearning,2023.1.3,None,
-150,z,,,,,32,0,128,3,1052.8557583340007,1053.8499100000008,1053.8499100000008,1053.8499100000008,1053.8499100000008,1053.8499100000008,1054.8476687090006,1054.8476687090006,z,1,0.5669744589977199,None,1,001,2023-10-17_22h30.59.890,MotorSequenceLearning,2023.1.3,None,
50,c,,,,,32,1,129,2,1055.4224306249998,1056.4167268750025,1056.4167268750025,1056.4167268750025,1056.4167268750025,1056.4167268750025,1057.4143021670025,1057.4143021670025,c,1,0.8340471250012342,None,1,001,2023-10-17_22h30.59.890,MotorSequenceLearning,2023.1.3,None,
-50,x,,,,,32,2,130,0,1058.2549121670017,1059.250070625003,1059.250070625003,1059.250070625003,1059.250070625003,1059.250070625003,1060.2476555419998,1060.2476555419998,x,1,0.4263671670014446,None,1,001,2023-10-17_22h30.59.890,MotorSequenceLearning,2023.1.3,None,
150,v,,,,,32,3,131,1,1060.680740459,1061.6729683340018,1061.6729683340018,1061.6729683340018,1061.6729683340018,1061.6729683340018,1062.6721611249995,1062.6721611249995,v,1,0.4596006249994389,None,1,001,2023-10-17_22h30.59.890,MotorSequenceLearning,2023.1.3,None,
-50,x,,,,,33,0,132,0,1063.1392400000004,1064.1335857500017,1064.1335857500017,1064.1335857500017,1064.1335857500017,1064.1335857500017,1065.1309990000009,1065.1309990000009,x,1,0.6846095410000999,None,1,001,2023-10-17_22h30.59.890,MotorSequenceLearning,2023.1.3,None,
-50,x,,,,,33,1,133,0,1065.8222491670022,1066.8170090420026,1066.8170090420026,1066.8170090420026,1066.8170090420026,1066.8170090420026,1067.8143072500025,1067.8143072500025,x,1,0.4265242910005327,None,1,001,2023-10-17_22h30.59.890,MotorSequenceLearning,2023.1.3,None,
150,v,,,,,33,2,134,1,1068.2475256670004,1069.2562540840008,1069.2562540840008,1069.2562540840008,1069.2562540840008,1069.2733387500011,1070.238549167003,1070.238549167003,v,1,0.5027115410011902,None,1,001,2023-10-17_22h30.59.890,MotorSequenceLearning,2023.1.3,None,
50,c,,,,,33,3,135,2,1070.7477039590012,1071.7415402920014,1071.7415402920014,1071.7415402920014,1071.7415402920014,1071.7567000840027,1072.7386912500006,1072.7386912500006,c,1,0.7434140000004845,None,1,001,2023-10-17_22h30.59.890,MotorSequenceLearning,2023.1.3,None,
50,c,,,,,34,0,136,2,1073.4885790420012,1074.483788417001,1074.483788417001,1074.483788417001,1074.483788417001,1074.483788417001,1075.4814018340003,1075.4814018340003,c,1,0.6176097079987812,None,1,001,2023-10-17_22h30.59.890,MotorSequenceLearning,2023.1.3,None,
-50,x,,,,,34,1,137,0,1076.1056307090003,1077.100218917003,1077.100218917003,1077.100218917003,1077.100218917003,1077.100218917003,1078.0978161250023,1078.0978161250023,x,1,0.6337428750011895,None,1,001,2023-10-17_22h30.59.890,MotorSequenceLearning,2023.1.3,None,
150,v,,,,,34,2,138,1,1078.7394835420018,1079.7335004170018,1079.7335004170018,1079.7335004170018,1079.7335004170018,1079.7335004170018,1080.7315717920028,1080.7315717920028,v,1,0.8174835410027299,None,1,001,2023-10-17_22h30.59.890,MotorSequenceLearning,2023.1.3,None,
-50,x,,,,,34,3,139,0,1081.5559060840023,1082.5502750840024,1082.5502750840024,1082.5502750840024,1082.5502750840024,1082.5502750840024,1083.5480348340025,1083.5480348340025,x,1,0.4597399169979326,None,1,001,2023-10-17_22h30.59.890,MotorSequenceLearning,2023.1.3,None,
-50,x,,,,,35,0,140,0,1084.0143989170028,1085.0062165840027,1085.0062165840027,1085.0062165840027,1085.0062165840027,1085.0062165840027,1086.005347000002,1086.005347000002,x,1,0.5933877499992377,None,1,001,2023-10-17_22h30.59.890,MotorSequenceLearning,2023.1.3,None,
-50,x,,,,,35,1,141,0,1086.6054498750018,1087.6004893749996,1087.6004893749996,1087.6004893749996,1087.6004893749996,1087.6004893749996,1088.5981315000026,1088.5981315000026,x,1,0.5010549159997026,None,1,001,2023-10-17_22h30.59.890,MotorSequenceLearning,2023.1.3,None,
150,v,,,,,35,2,142,1,1089.1060185839997,1090.1012480420031,1090.1012480420031,1090.1012480420031,1090.1012480420031,1090.1012480420031,1091.0981175840025,1091.0981175840025,v,1,0.7507698340014031,None,1,001,2023-10-17_22h30.59.890,MotorSequenceLearning,2023.1.3,None,
-50,x,,,,,35,3,143,0,1091.8563560840012,1092.8507564170031,1092.8507564170031,1092.8507564170031,1092.8507564170031,1092.8507564170031,1093.8484229170026,1093.8484229170026,x,1,0.5670916249982838,None,1,001,2023-10-17_22h30.59.890,MotorSequenceLearning,2023.1.3,None,
50,c,,,,,36,0,144,2,1094.4230701250017,1095.4167991670001,1095.4167991670001,1095.4167991670001,1095.4167991670001,1095.4167991670001,1096.4153345420018,1096.4153345420018,c,1,0.5332181660014612,None,1,001,2023-10-17_22h30.59.890,MotorSequenceLearning,2023.1.3,None,
150,v,,,,,36,1,145,1,1096.9565531670014,1097.9502410000023,1097.9502410000023,1097.9502410000023,1097.9502410000023,1097.9502410000023,1098.9489983340027,1098.9489983340027,v,1,0.5497580839983129,None,1,001,2023-10-17_22h30.59.890,MotorSequenceLearning,2023.1.3,None,
150,v,,,,,36,2,146,1,1099.5064737499997,1100.500250125002,1100.500250125002,1100.500250125002,1100.500250125002,1100.500250125002,1101.4984560420016,1101.4984560420016,v,1,0.4248565000016242,None,1,001,2023-10-17_22h30.59.890,MotorSequenceLearning,2023.1.3,None,
-50,x,,,,,36,3,147,0,1101.930539500001,1102.9187298340003,1102.9187298340003,1102.9187298340003,1102.9187298340003,1102.9280575000012,1103.9148465420003,1103.9148465420003,x,1,0.5677372910031409,None,1,001,2023-10-17_22h30.59.890,MotorSequenceLearning,2023.1.3,None,
150,v,,,,,37,0,148,1,1104.489166000003,1105.483652834002,1105.483652834002,1105.483652834002,1105.483652834002,1105.483652834002,1106.4824410420006,1106.4824410420006,v,1,0.4758143340004608,None,1,001,2023-10-17_22h30.59.890,MotorSequenceLearning,2023.1.3,None,
50,c,,,,,37,1,149,2,1106.9650921250031,1107.957468042001,1107.957468042001,1107.957468042001,1107.957468042001,1107.9670056249997,1108.9559490000029,1108.9559490000029,c,1,1.4187701250011742,None,1,001,2023-10-17_22h30.59.890,MotorSequenceLearning,2023.1.3,None,
150,v,,,,,37,2,150,1,1110.3811463750026,1111.390201084003,1111.390201084003,1111.390201084003,1111.390201084003,1111.4073292920002,1112.3723673750028,1112.3723673750028,v,1,0.5269475419991068,None,1,001,2023-10-17_22h30.59.890,MotorSequenceLearning,2023.1.3,None,
150,v,,,,,37,3,151,1,1112.9060013750022,1113.901367792001,1113.901367792001,1113.901367792001,1113.901367792001,1113.901367792001,1114.8988237090016,1114.8988237090016,v,1,0.4666993749997346,None,1,001,2023-10-17_22h30.59.890,MotorSequenceLearning,2023.1.3,None,
-50,x,,,,,38,0,152,0,1115.373348084002,1116.3601804589998,1116.3601804589998,1116.3601804589998,1116.3601804589998,1116.3738464590024,1117.3657173339998,1117.3657173339998,x,1,0.541192583998054,None,1,001,2023-10-17_22h30.59.890,MotorSequenceLearning,2023.1.3,None,
50,c,,,,,38,1,153,2,1117.9139674590006,1118.9020828339999,1118.9020828339999,1118.9020828339999,1118.9020828339999,1118.9109973340019,1119.8990880840029,1119.8990880840029,c,1,0.49977975000001607,None,1,001,2023-10-17_22h30.59.890,MotorSequenceLearning,2023.1.3,None,
150,v,,,,,38,2,154,1,1120.4066897090015,1121.4010873340012,1121.4010873340012,1121.4010873340012,1121.4010873340012,1121.4010873340012,1122.398542709001,1122.398542709001,v,1,0.4913452500004496,None,1,001,2023-10-17_22h30.59.890,MotorSequenceLearning,2023.1.3,None,
150,v,,,,,38,3,155,1,1122.896805417,1123.8856669170018,1123.8856669170018,1123.8856669170018,1123.8856669170018,1123.894544042003,1124.8900982920022,1124.8900982920022,v,1,0.5336798749995069,None,1,001,2023-10-17_22h30.59.890,MotorSequenceLearning,2023.1.3,None,
150,v,,,,,39,0,156,1,1125.4310717920016,1126.4190333340011,1126.4190333340011,1126.4190333340011,1126.4190333340011,1126.4277495839997,1127.4226588340025,1127.4226588340025,v,1,0.6433506670000497,None,1,001,2023-10-17_22h30.59.890,MotorSequenceLearning,2023.1.3,None,
50,c,,,,,39,1,157,2,1128.0736127500022,1129.0674149170009,1129.0674149170009,1129.0674149170009,1129.0674149170009,1129.0674149170009,1130.0655836250007,1130.0655836250007,c,1,0.6504699159995653,None,1,001,2023-10-17_22h30.59.890,MotorSequenceLearning,2023.1.3,None,
-150,z,,,,,39,2,158,3,1130.7226177500015,1131.7179271250025,1131.7179271250025,1131.7179271250025,1131.7179271250025,1131.7179271250025,1132.715462375003,1132.715462375003,z,1,0.6911791669990635,None,1,001,2023-10-17_22h30.59.890,MotorSequenceLearning,2023.1.3,None,
-50,x,,,,,39,3,159,0,1133.413885334001,1134.4031385420021,1134.4031385420021,1134.4031385420021,1134.4031385420021,1134.412633875003,1135.3986181670007,1135.3986181670007,x,1,0.334365541999432,None,1,001,2023-10-17_22h30.59.890,MotorSequenceLearning,2023.1.3,None,
150,v,,,,,40,0,160,1,1135.7398803750002,1136.7355440419997,1136.7355440419997,1136.7355440419997,1136.7355440419997,1136.7355440419997,1137.7322852500001,1137.7322852500001,v,1,0.7333338329990511,None,1,001,2023-10-17_22h30.59.890,MotorSequenceLearning,2023.1.3,None,
50,c,,,,,40,1,161,2,1138.4735649169997,1139.4682527090008,1139.4682527090008,1139.4682527090008,1139.4682527090008,1139.4682527090008,1140.4655005420027,1140.4655005420027,c,1,0.5414441670000087,None,1,001,2023-10-17_22h30.59.890,MotorSequenceLearning,2023.1.3,None,
-50,x,,,,,40,2,162,0,1141.0139904589996,1142.0024482920016,1142.0024482920016,1142.0024482920016,1142.0024482920016,1142.0115155000021,1143.007095500001,1143.007095500001,x,1,0.575702292000642,None,1,001,2023-10-17_22h30.59.890,MotorSequenceLearning,2023.1.3,None,
50,c,,,,,40,3,163,2,1143.5896060000014,1144.5846773340018,1144.5846773340018,1144.5846773340018,1144.5846773340018,1144.5846773340018,1145.582300584003,1145.582300584003,c,1,0.7171817080015899,None,1,001,2023-10-17_22h30.59.890,MotorSequenceLearning,2023.1.3,None,
-50,x,,,,,41,0,164,0,1146.3072156250018,1147.3016860839998,1147.3016860839998,1147.3016860839998,1147.3016860839998,1147.3016860839998,1148.2988754590006,1148.2988754590006,x,1,0.41789795799923013,None,1,001,2023-10-17_22h30.59.890,MotorSequenceLearning,2023.1.3,None,
-150,z,,,,,41,1,165,3,1148.7232400840003,1149.7178226249998,1149.7178226249998,1149.7178226249998,1149.7178226249998,1149.7178226249998,1150.7154382500012,1150.7154382500012,z,1,0.7001707919989713,None,1,001,2023-10-17_22h30.59.890,MotorSequenceLearning,2023.1.3,None,
-50,x,,,,,41,2,166,0,1151.4237410839996,1152.4175754589996,1152.4175754589996,1152.4175754589996,1152.4175754589996,1152.4175754589996,1153.4162303340017,1153.4162303340017,x,1,0.5159563330016681,None,1,001,2023-10-17_22h30.59.890,MotorSequenceLearning,2023.1.3,None,
-150,z,,,,,41,3,167,3,1153.9405820840002,1154.9274622090015,1154.9274622090015,1154.9274622090015,1154.9274622090015,1154.941192125003,1155.9323783340005,1155.9323783340005,z,1,0.5766078330016171,None,1,001,2023-10-17_22h30.59.890,MotorSequenceLearning,2023.1.3,None,
150,v,,,,,42,0,168,1,1156.515821750003,1157.5242351670022,1157.5242351670022,1157.5242351670022,1157.5242351670022,1157.5412527920016,1158.5069307500016,1158.5069307500016,v,1,0.9759752079989994,None,1,001,2023-10-17_22h30.59.890,MotorSequenceLearning,2023.1.3,None,
150,v,,,,,42,1,169,1,1159.4906735000004,1160.4838472920019,1160.4838472920019,1160.4838472920019,1160.4838472920019,1160.4838472920019,1161.482368709003,1161.482368709003,v,1,2.05174687500039,None,1,001,2023-10-17_22h30.59.890,MotorSequenceLearning,2023.1.3,None,
150,v,,,,,42,2,170,1,1163.5400774170012,1164.535514459003,1164.535514459003,1164.535514459003,1164.535514459003,1164.535514459003,1165.5324285000024,1165.5324285000024,v,1,1.3840985839997302,None,1,001,2023-10-17_22h30.59.890,MotorSequenceLearning,2023.1.3,None,
-150,z,,,,,42,3,171,3,1166.924263375,1167.9178721250028,1167.9178721250028,1167.9178721250028,1167.9178721250028,1167.9178721250028,1168.9158883340024,1168.9158883340024,z,1,0.8507596669987834,None,1,001,2023-10-17_22h30.59.890,MotorSequenceLearning,2023.1.3,None,
-150,z,,,,,43,0,172,3,1169.7740957919996,1170.7678276250008,1170.7678276250008,1170.7678276250008,1170.7678276250008,1170.7678276250008,1171.7646185840022,1171.7646185840022,z,1,0.7093374579999363,None,1,001,2023-10-17_22h30.59.890,MotorSequenceLearning,2023.1.3,None,
-50,x,,,,,43,1,173,0,1172.481256459003,1173.4692397090002,1173.4692397090002,1173.4692397090002,1173.4692397090002,1173.4780845420028,1174.465960667003,1174.465960667003,x,1,0.40014008399884915,None,1,001,2023-10-17_22h30.59.890,MotorSequenceLearning,2023.1.3,None,
50,c,,,,,43,2,174,2,1174.8742232920013,1175.8605576670016,1175.8605576670016,1175.8605576670016,1175.8605576670016,1175.874884834,1176.8659896669997,1176.8659896669997,c,1,0.517792709000787,None,1,001,2023-10-17_22h30.59.890,MotorSequenceLearning,2023.1.3,None,
150,v,,,,,43,3,175,1,1177.3904297920017,1178.3848631670007,1178.3848631670007,1178.3848631670007,1178.3848631670007,1178.3848631670007,1179.3826967090026,1179.3826967090026,v,1,0.5672262500011129,None,1,001,2023-10-17_22h30.59.890,MotorSequenceLearning,2023.1.3,None,
150,v,,,,,44,0,176,1,1179.9568780420013,1180.9519680840021,1180.9519680840021,1180.9519680840021,1180.9519680840021,1180.9519680840021,1181.949136334002,1181.949136334002,v,1,0.9596632920001866,None,1,001,2023-10-17_22h30.59.890,MotorSequenceLearning,2023.1.3,None,
50,c,,,,,44,1,177,2,1182.9145020840006,1183.9075716670013,1183.9075716670013,1183.9075716670013,1183.9075716670013,1183.9075716670013,1184.907860542,1184.907860542,c,1,0.5848993330000667,None,1,001,2023-10-17_22h30.59.890,MotorSequenceLearning,2023.1.3,None,
-50,x,,,,,44,2,178,0,1185.4988200420012,1186.4914642920012,1186.4914642920012,1186.4914642920012,1186.4914642920012,1186.4914642920012,1187.4909660840021,1187.4909660840021,x,1,0.8259997089990065,None,1,001,2023-10-17_22h30.59.890,MotorSequenceLearning,2023.1.3,None,
-150,z,,,,,44,3,179,3,1188.3243678750005,1189.319926209002,1189.319926209002,1189.319926209002,1189.319926209002,1189.319926209002,1190.3161397500007,1190.3161397500007,z,1,0.7096642080032325,None,1,001,2023-10-17_22h30.59.890,MotorSequenceLearning,2023.1.3,None,
-50,x,,,,,45,0,180,0,1191.032653125003,1192.0252692499998,1192.0252692499998,1192.0252692499998,1192.0252692499998,1192.0348622920028,1193.0246636670017,1193.0246636670017,x,1,0.5497300420029205,None,1,001,2023-10-17_22h30.59.890,MotorSequenceLearning,2023.1.3,None,
